na_nagot_saturated
Integration time [ms]: 2000.000
Averaging Nr. [scans]: 5
Smoothing Nr. [pixels]: 0
Data measured with spectrometer [name]: 1804346U2
Wave   ;Sample   ;Dark     ;Reference;Scope Corrected for Dark
[nm]   ;[counts] ;[counts] ;[counts] 

 294.30;  450.485;  113.769;    0.000;336.71621
 294.47;  498.390;  109.485;    0.000;388.90447
 294.63;  806.833;  473.110;    0.000;333.72208
 294.80; 1079.748;  699.183;    0.000;380.56537
 294.97;  353.466;   65.208;    0.000;288.25766
 295.14;  241.756;  -72.213;    0.000;313.96889
 295.31;  507.602;  151.859;    0.000;355.74351
 295.48;  420.192;  110.049;    0.000;310.14248
 295.64;  401.602;   87.018;    0.000;314.58400
 295.81;  -33.472; -357.365;    0.000;323.89332
 295.98;  483.429;  143.370;    0.000;340.05957
 296.15;  363.648;   44.889;    0.000;318.75862
 296.32;  115.920; -129.716;    0.000;245.63580
 296.48;  620.680;  406.864;    0.000;213.81570
 296.65; 1099.949;  736.159;    0.000;363.78987
 296.82;  460.997;  128.354;    0.000;332.64299
 296.99;   -6.109; -312.286;    0.000;306.17623
 297.16;  -52.932; -391.628;    0.000;338.69567
 297.33; 1068.650;  780.789;    0.000;287.86163
 297.49;  705.060;  404.422;    0.000;300.63815
 297.66;  478.264;  111.485;    0.000;366.77916
 297.83;  224.433;  -91.249;    0.000;315.68158
 298.00;  925.144;  603.214;    0.000;321.92987
 298.17;  662.744;  282.455;    0.000;380.28936
 298.33;  833.554;  587.023;    0.000;246.53089
 298.50;  -79.553; -445.352;    0.000;365.79912
 298.67;  513.717;  116.544;    0.000;397.17329
 298.84;  430.330;   82.999;    0.000;347.33133
 299.01;  522.071;  134.113;    0.000;387.95818
 299.17;  317.550;  -59.759;    0.000;377.30888
 299.34;  623.750;  211.600;    0.000;412.14938
 299.51;  737.150;  383.000;    0.000;354.14938
 299.68;  299.217;  -68.868;    0.000;368.08555
 299.85;  576.656;  158.440;    0.000;418.21614
 300.01;  214.223;  -48.563;    0.000;262.78606
 300.18;  573.885;  128.410;    0.000;445.47572
 300.35;  476.194;   84.149;    0.000;392.04548
 300.52;  315.525; -122.747;    0.000;438.27131
 300.69;  598.380;  264.852;    0.000;333.52795
 300.86;  166.846; -166.434;    0.000;333.28011
 301.02;  467.383;   -4.343;    0.000;471.72546
 301.19;  502.357;   55.869;    0.000;446.48789
 301.36;  758.638;  108.415;    0.000;650.22260
 301.53;  754.273;  153.877;    0.000;600.39619
 301.70;  537.664;  -57.315;    0.000;594.97916
 301.86;  205.393; -227.333;    0.000;432.72649
 302.03;  775.836;  385.651;    0.000;390.18459
 302.20; 1119.613;  715.709;    0.000;403.90403
 302.37;  433.767;   58.838;    0.000;374.92942
 302.54;  399.409;  -69.273;    0.000;468.68202
 302.70;  750.380;  388.611;    0.000;361.76845
 302.87;  261.163;  -78.385;    0.000;339.54791
 303.04;  413.747;   90.354;    0.000;323.39237
 303.21;   23.918; -342.774;    0.000;366.69230
 303.37;  931.045;  552.643;    0.000;378.40161
 303.54;  677.525;  271.453;    0.000;406.07131
 303.71;  549.625;  211.042;    0.000;338.58357
 303.88;   24.420; -351.822;    0.000;376.24255
 304.05;  507.305;  128.452;    0.000;378.85327
 304.21;  369.172; -101.193;    0.000;470.36493
 304.38;  563.069;  167.149;    0.000;395.92018
 304.55;  365.593;   38.426;    0.000;327.16699
 304.72;  538.742;  149.532;    0.000;389.21086
 304.89;  340.868;  -49.869;    0.000;390.73617
 305.05;  302.923;  -59.870;    0.000;362.79281
 305.22;   38.106; -384.907;    0.000;423.01276
 305.39;  478.074;  193.454;    0.000;284.62069
 305.56;  380.679;    7.382;    0.000;373.29670
 305.73;  328.863;    2.003;    0.000;326.86016
 305.89;  262.067; -110.551;    0.000;372.61717
 306.06;  410.847;   26.207;    0.000;384.63962
 306.23;  563.956;  152.146;    0.000;411.80939
 306.40;  576.851;  209.230;    0.000;367.62113
 306.56;  338.427;  -24.635;    0.000;363.06207
 306.73;  232.206;  -84.160;    0.000;316.36552
 306.90;  374.417;  -68.163;    0.000;442.58004
 307.07;  416.160;   97.769;    0.000;318.39090
 307.24;  119.455; -311.842;    0.000;431.29714
 307.40;  522.414;  196.350;    0.000;326.06354
 307.57;  315.439;  -17.862;    0.000;333.30110
 307.74;  351.296;   -2.340;    0.000;353.63624
 307.91;  375.427;   28.565;    0.000;346.86207
 308.08;  859.700;  540.401;    0.000;319.29876
 308.24;  708.151;  294.682;    0.000;413.46838
 308.41;  433.454;  102.676;    0.000;330.77813
 308.58;  251.992; -209.151;    0.000;461.14248
 308.75;  532.314;  161.738;    0.000;370.57579
 308.91;  622.319;  191.508;    0.000;430.81130
 309.08;  498.536;  125.345;    0.000;373.19134
 309.25;  293.278;  -63.700;    0.000;356.97770
 309.42;  352.290;  -31.327;    0.000;383.61672
 309.58;  387.127;  -63.783;    0.000;450.90932
 309.75;  335.591;   32.062;    0.000;303.52897
 309.92;   57.726; -306.624;    0.000;364.34982
 310.09;  517.480;  100.105;    0.000;417.37520
 310.26;  265.246;  -77.275;    0.000;342.52062
 310.42;  446.866;   46.167;    0.000;400.69817
 310.59;  177.290; -125.168;    0.000;302.45722
 310.76;  831.087;  408.374;    0.000;422.71372
 310.93;  476.847;  100.407;    0.000;376.43962
 311.09;  336.506;  -39.212;    0.000;375.71826
 311.26;  290.273;  -98.964;    0.000;389.23668
 311.43;  492.624;  123.960;    0.000;368.66456
 311.60;  378.936;   45.745;    0.000;333.19134
 311.76;  692.515;  345.220;    0.000;347.29479
 311.93;  268.179;  -91.871;    0.000;360.04944
 312.10;  571.449;  280.866;    0.000;290.58313
 312.27;  232.747; -142.405;    0.000;375.15187
 312.44;  203.141; -173.591;    0.000;376.73236
 312.60;  127.087; -271.826;    0.000;398.91372
 312.77;  877.278;  483.141;    0.000;394.13719
 312.94;  409.879;   31.223;    0.000;378.65620
 313.11;  311.322;   22.807;    0.000;288.51430
 313.27;  704.448;  283.089;    0.000;421.35862
 313.44;  542.877;  180.659;    0.000;362.21820
 313.61;  101.173; -199.017;    0.000;300.18944
 313.78;  199.370; -227.957;    0.000;427.32692
 313.94;  263.433;  -87.690;    0.000;351.12208
 314.11;  632.439;  174.538;    0.000;457.90110
 314.28;  449.582;   55.375;    0.000;394.20646
 314.45;   72.091; -293.486;    0.000;365.57623
 314.61;  213.992; -176.015;    0.000;390.00748
 314.78;  475.779;   77.570;    0.000;398.20895
 314.95;  382.141;  -48.991;    0.000;431.13236
 315.12;  786.391;  390.262;    0.000;396.12897
 315.28;   61.564; -361.703;    0.000;423.26691
 315.45;  394.020;   69.137;    0.000;324.88305
 315.62;  476.758;   64.351;    0.000;412.40690
 315.79;  955.372;  564.701;    0.000;390.67043
 315.95;  108.721; -211.075;    0.000;319.79530
 316.12;  529.818;  136.414;    0.000;393.40455
 316.29;  303.233;  -83.649;    0.000;386.88158
 316.46;  647.346;  261.913;    0.000;385.43286
 316.62;  418.094;  -31.239;    0.000;449.33324
 316.79;  362.771;  -24.181;    0.000;386.95143
 316.96;  555.955;  228.464;    0.000;327.49039
 317.13;  541.289;  205.750;    0.000;335.53822
 317.29;  440.757;    9.428;    0.000;431.32839
 317.46;  459.948;  143.636;    0.000;316.31137
 317.63;  628.040;  214.779;    0.000;413.26060
 317.80;  161.824; -152.040;    0.000;313.86456
 317.96;  172.592; -259.551;    0.000;432.14248
 318.13;  915.479;  493.382;    0.000;422.09670
 318.30;  593.818;   98.319;    0.000;495.49905
 318.47;  242.944; -180.786;    0.000;423.72987
 318.63;  133.305; -256.548;    0.000;389.85327
 318.80;  825.697;  405.942;    0.000;419.75525
 318.97;  575.243;   89.025;    0.000;486.21761
 319.14;  448.126;   39.630;    0.000;408.49582
 319.30;  127.562; -246.067;    0.000;373.62891
 319.47;  547.045;  139.884;    0.000;407.16112
 319.64;  442.166;  -36.939;    0.000;479.10491
 319.81;  876.490;  482.273;    0.000;394.21672
 319.97;  290.359; -112.472;    0.000;402.83140
 320.14;  651.728;  260.394;    0.000;391.33382
 320.31;  554.146;   58.219;    0.000;495.92737
 320.48;  535.687;  152.627;    0.000;383.05973
 320.64;   59.654; -415.124;    0.000;474.77813
 320.81;  499.246;  106.125;    0.000;393.12062
 320.98;  461.854;   30.917;    0.000;430.93764
 321.14;  434.619;   48.655;    0.000;385.96405
 321.31;  256.324; -184.029;    0.000;440.35232
 321.48;  834.894;  445.696;    0.000;389.19823
 321.65;  491.131;   59.281;    0.000;431.85033
 321.81;  351.394;  -40.251;    0.000;391.64548
 321.98;  650.929;  211.676;    0.000;439.25283
 322.15;  713.758;  297.910;    0.000;415.84740
 322.32;  537.246;  102.366;    0.000;434.88011
 322.48;  341.165;   81.633;    0.000;259.53192
 322.65;  135.923; -190.470;    0.000;326.39281
 322.82;  582.986;  186.439;    0.000;396.54746
 322.99;  349.188;  -19.784;    0.000;368.97197
 323.15;  308.357;  -80.772;    0.000;389.12839
 323.32;  229.904; -177.671;    0.000;407.57477
 323.49;  240.559; -117.872;    0.000;358.43140
 323.65;  685.500;  203.547;    0.000;481.95275
 323.82;  550.642;  191.838;    0.000;358.80411
 323.99;  794.841;  343.661;    0.000;451.17960
 324.16; 1163.877;  759.059;    0.000;404.81820
 324.32;  397.392;  -12.056;    0.000;409.44798
 324.49;  808.565;  421.074;    0.000;387.49142
 324.66;  418.640;  -52.180;    0.000;470.82010
 324.82;  385.605;  -49.001;    0.000;434.60602
 324.99;  545.287;  159.933;    0.000;385.35422
 325.16;  430.706;  -41.466;    0.000;472.17227
 325.33;  265.825; -197.358;    0.000;463.18357
 325.49;  437.000;   24.895;    0.000;412.10550
 325.66;  996.031;  555.587;    0.000;440.44358
 325.83;  575.990;  130.726;    0.000;445.26398
 325.99;  646.680;  164.264;    0.000;482.41570
 326.16; 1366.750;  897.841;    0.000;468.90888
 326.33;  239.460; -184.137;    0.000;423.59765
 326.50;  456.341;   50.409;    0.000;405.93236
 326.66;  422.025;   25.801;    0.000;396.22406
 326.83;  827.781;  412.293;    0.000;415.48746
 327.00;  796.593;  380.067;    0.000;416.52649
 327.16;  389.089; -109.450;    0.000;498.53822
 327.33;  177.096; -341.075;    0.000;518.17124
 327.50;  521.031;   31.187;    0.000;489.84358
 327.67;  410.161;  -54.149;    0.000;464.30991
 327.83;  439.627;  -53.835;    0.000;493.46207
 328.00;  691.266;  194.767;    0.000;496.49817
 328.17;  692.112;  150.280;    0.000;541.83228
 328.33;  899.563;  332.215;    0.000;567.34791
 328.50;  845.201;  331.336;    0.000;513.86501
 328.67;  273.915; -254.980;    0.000;528.89479
 328.84;  774.817;  129.132;    0.000;645.68555
 329.00;  709.741;  147.409;    0.000;562.33236
 329.17;  914.083;  160.646;    0.000;753.43771
 329.34;  412.674; -383.682;    0.000;796.35568
 329.50; 1078.953;  119.141;    0.000;959.81189
 329.67; 2126.531;  794.081;    0.000;1332.45033
 329.84; 2106.168;  -28.880;    0.000;2135.04842
 330.01; 4571.071;  -66.128;    0.000;4637.19868
 330.17;13402.505;  418.306;    0.000;12984.19927
 330.34;24877.123;  438.530;    0.000;24438.59281
 330.51;13345.953;  105.982;    0.000;13239.97138
 330.67; 2675.502;  168.206;    0.000;2507.29626
 330.84; 1081.973;   72.224;    0.000;1009.74894
 331.01;  858.976;  150.271;    0.000;708.70594
 331.17;  481.489; -155.050;    0.000;636.53822
 331.34;  319.613; -270.891;    0.000;590.50403
 331.51;  487.111;  -49.643;    0.000;536.75378
 331.68;  751.626;  190.483;    0.000;561.14307
 331.84;  446.471; -117.087;    0.000;563.55818
 332.01;  900.079;  366.423;    0.000;533.65620
 332.18;  686.960;  216.769;    0.000;470.19090
 332.34;  972.155;  480.864;    0.000;491.29039
 332.51;  477.058;  -25.301;    0.000;502.35964
 332.68;  246.892; -241.804;    0.000;488.69524
 332.84;  463.014;  -28.450;    0.000;491.46354
 333.01;  409.725;  -86.306;    0.000;496.03082
 333.18; 1158.511;  686.998;    0.000;471.51328
 333.34;  270.085; -237.990;    0.000;508.07572
 333.51; 1141.307;  647.511;    0.000;493.79677
 333.68;  694.621;  190.219;    0.000;504.40205
 333.85;  829.275;  371.336;    0.000;457.93969
 334.01;  465.652;  -55.888;    0.000;521.54013
 334.18;  812.296;  273.219;    0.000;539.07674
 334.35;  376.670; -154.169;    0.000;530.83917
 334.51;  371.346;  -51.287;    0.000;422.63286
 334.68;  217.910; -329.725;    0.000;547.63478
 334.85;  576.881;  136.882;    0.000;439.99971
 335.01;  340.287; -236.626;    0.000;576.91372
 335.18;  553.507;   46.311;    0.000;507.19677
 335.35;  124.884; -335.472;    0.000;460.35671
 335.51;  695.945;  328.990;    0.000;366.95435
 335.68;  736.477;  205.059;    0.000;531.41820
 335.85;  419.548;  -41.723;    0.000;461.27087
 336.01;  753.399;  229.813;    0.000;523.58650
 336.18;  806.458;  255.499;    0.000;550.95964
 336.35;  460.006;   10.240;    0.000;449.76552
 336.51; 1026.397;  558.648;    0.000;467.74849
 336.68;  210.562; -262.067;    0.000;472.62891
 336.85;  513.766;   14.115;    0.000;499.65092
 337.02;  723.858;  223.058;    0.000;500.80015
 337.18;  419.847;  -22.698;    0.000;442.54511
 337.35;  480.405;   32.958;    0.000;447.44651
 337.52;  996.487;  505.627;    0.000;490.85973
 337.68;  590.028;  101.141;    0.000;488.88658
 337.85;  219.202; -280.047;    0.000;499.24901
 338.02;  483.123;  -44.870;    0.000;527.99281
 338.18;  638.205;  147.358;    0.000;490.84651
 338.35;  693.600;  238.854;    0.000;454.74600
 338.52;  245.830; -238.654;    0.000;484.48408
 338.68;  232.693; -320.922;    0.000;553.61423
 338.85;  272.121; -217.234;    0.000;489.35481
 339.02;  657.841;  192.597;    0.000;465.24462
 339.18;  513.129;   30.476;    0.000;482.65283
 339.35;  179.651; -354.770;    0.000;534.42113
 339.52;  867.622;  359.355;    0.000;508.26706
 339.68;  681.963;  193.310;    0.000;488.65341
 339.85;  514.086;   80.786;    0.000;433.30021
 340.02;  718.513;  138.521;    0.000;579.99178
 340.18;  721.468;  220.626;    0.000;500.84166
 340.35;  893.730;  339.199;    0.000;554.53133
 340.52;  804.772;  284.501;    0.000;520.27043
 340.68;  151.175; -368.211;    0.000;519.38694
 340.85;  841.884;  390.422;    0.000;451.46222
 341.02;  573.603;   77.235;    0.000;496.36801
 341.18;  717.588;  219.457;    0.000;498.13148
 341.35;  435.868;  -77.774;    0.000;513.64166
 341.52;  890.815;  377.927;    0.000;512.88805
 341.68;  586.116;   58.703;    0.000;527.41379
 341.85;  514.435; -105.190;    0.000;619.62509
 342.02;  327.166; -196.085;    0.000;523.25092
 342.18;  651.515;   71.420;    0.000;580.09479
 342.35;  487.878;  -57.859;    0.000;545.73719
 342.52;  896.062;  201.721;    0.000;694.34116
 342.68;  231.780; -348.748;    0.000;580.52795
 342.85; 1252.621;  709.914;    0.000;542.70755
 343.02;  792.603;  140.500;    0.000;652.10301
 343.18;  633.758;   89.205;    0.000;544.55290
 343.35;  -72.750; -601.811;    0.000;529.06163
 343.51;  910.762;  416.828;    0.000;493.93440
 343.68;  248.533; -295.742;    0.000;544.27483
 343.85;  689.377;  110.365;    0.000;579.01145
 344.01;  416.308; -171.007;    0.000;587.31577
 344.18;  825.766;  316.915;    0.000;508.85092
 344.35;  537.224;  -85.881;    0.000;623.10506
 344.51;  468.381;  -60.412;    0.000;528.79296
 344.68;  535.234; -201.967;    0.000;737.20059
 344.85;  711.805;   67.958;    0.000;643.84651
 345.01; 1174.776;  615.883;    0.000;558.89244
 345.18;  384.814; -186.114;    0.000;570.92853
 345.35;  300.054; -278.471;    0.000;578.52414
 345.51;  623.070;  118.685;    0.000;504.38518
 345.68;  395.936; -203.096;    0.000;599.03185
 345.85;  649.299;   32.760;    0.000;616.53925
 346.01;  245.745; -286.569;    0.000;532.31387
 346.18; 1034.240;  432.474;    0.000;601.76610
 346.35;  848.071;  204.072;    0.000;643.99868
 346.51;  994.285;  444.063;    0.000;550.22171
 346.68;  405.762; -210.467;    0.000;616.22891
 346.84;  565.325;  -16.652;    0.000;581.97681
 347.01;  639.602;   43.912;    0.000;595.68950
 347.18;  694.962;   -0.267;    0.000;695.22891
 347.34;  400.114; -238.903;    0.000;639.01629
 347.51;  951.321;  264.525;    0.000;686.79530
 347.68;  766.031;  147.187;    0.000;618.84358
 347.84;  529.879;  -73.924;    0.000;603.80221
 348.01;  490.654; -196.830;    0.000;687.48364
 348.18;  987.601;  348.030;    0.000;639.57051
 348.34;  520.902;  -94.741;    0.000;615.64225
 348.51;  578.647;  -61.898;    0.000;640.54511
 348.67;  516.290; -133.968;    0.000;650.25722
 348.84; 1073.550;  380.336;    0.000;693.21437
 349.01;  613.915;  -43.180;    0.000;657.09479
 349.17;  727.486;  118.986;    0.000;608.50021
 349.34;  702.883;   21.646;    0.000;681.23771
 349.51;  897.090;  258.568;    0.000;638.52224
 349.67;  794.952;  104.500;    0.000;690.45239
 349.84;  516.184; -115.125;    0.000;631.30946
 350.01;  281.616; -344.550;    0.000;626.16655
 350.17;  667.873;   25.572;    0.000;642.30168
 350.34;  654.056;   -9.707;    0.000;663.76213
 350.50;  553.028; -161.218;    0.000;714.24607
 350.67;  771.171;   61.819;    0.000;709.35143
 350.84;  597.227;    4.859;    0.000;592.36757
 351.00;  557.406;  -88.119;    0.000;645.52501
 351.17; 1009.450;  339.789;    0.000;669.66163
 351.34;  615.314;   -7.103;    0.000;622.41629
 351.50;  873.193;  214.226;    0.000;658.96699
 351.67;  622.392;  -38.656;    0.000;661.04798
 351.83;  491.342;  -92.615;    0.000;583.95686
 352.00;  773.026;   73.283;    0.000;699.74307
 352.17;  854.900;  210.242;    0.000;644.65825
 352.33; 1276.046;  581.820;    0.000;694.22612
 352.50;  985.552;  251.659;    0.000;733.89288
 352.67;  465.145; -155.210;    0.000;620.35435
 352.83; 1192.476;  574.471;    0.000;618.00470
 353.00;  852.129;   70.117;    0.000;782.01232
 353.16;  858.125;  216.589;    0.000;641.53632
 353.33;  195.717; -487.962;    0.000;683.67881
 353.50;  957.358;  267.046;    0.000;690.31240
 353.66;  924.766;  193.115;    0.000;731.65092
 353.83;  616.290;  -48.632;    0.000;664.92224
 354.00;  596.810; -129.737;    0.000;726.54703
 354.16;  903.946;  223.872;    0.000;680.07336
 354.33; 1155.502;  448.406;    0.000;707.09626
 354.49;  436.994; -209.798;    0.000;646.79150
 354.66;  145.289; -590.250;    0.000;735.53822
 354.83;  868.948;  184.372;    0.000;684.57638
 354.99;  661.565; -144.526;    0.000;806.09142
 355.16;  844.241;  -46.403;    0.000;890.64462
 355.32; 1193.855;  257.652;    0.000;936.20264
 355.49; 1363.365;  189.274;    0.000;1174.09142
 355.66;  899.389;  -56.702;    0.000;956.09097
 355.82;  939.516;  247.597;    0.000;691.91929
 355.99;  569.385; -113.084;    0.000;682.46897
 356.15; 1081.100;  315.001;    0.000;766.09876
 356.32; 1310.823;  524.678;    0.000;786.14556
 356.49;  838.794;   17.443;    0.000;821.35099
 356.65;  597.345; -224.610;    0.000;821.95435
 356.82; 1301.870;  387.126;    0.000;914.74468
 356.98;  749.845;  -80.757;    0.000;830.60161
 357.15; 1042.821;  334.714;    0.000;708.10755
 357.32; 1569.873;  850.372;    0.000;719.50168
 357.48; 1067.212;  255.986;    0.000;811.22553
 357.65;  535.657; -191.025;    0.000;726.68114
 357.82; 1175.737;  438.280;    0.000;737.45635
 357.98;  610.546;  -88.128;    0.000;698.67336
 358.15;  927.375;  275.242;    0.000;652.13295
 358.31;  646.925;  -46.252;    0.000;693.17681
 358.48;  511.388; -145.743;    0.000;657.13148
 358.65;  714.229;  -17.336;    0.000;731.56508
 358.81;  977.601;  243.030;    0.000;734.57051
 358.98;  662.307;  -69.689;    0.000;731.99677
 359.14;  653.259;  -98.325;    0.000;751.58415
 359.31;  588.822; -129.804;    0.000;718.62656
 359.48;  727.536;   58.039;    0.000;669.49684
 359.64;  770.441;   41.997;    0.000;728.44462
 359.81;  763.805;   48.158;    0.000;715.64651
 359.97;  840.447;  107.902;    0.000;732.54511
 360.14;  717.130;  -11.706;    0.000;728.83683
 360.30; 1040.320;  292.884;    0.000;747.43580
 360.47;  623.094; -193.945;    0.000;817.03873
 360.64;  636.653; -301.912;    0.000;938.56465
 360.80; 1181.104;  308.065;    0.000;873.03976
 360.97;  726.450;  -39.252;    0.000;765.70213
 361.13;  804.686;   72.345;    0.000;732.34072
 361.30;  733.281;   44.882;    0.000;688.39971
 361.47; 1088.369;  344.655;    0.000;743.71343
 361.63;  585.772; -144.658;    0.000;730.42993
 361.80;  774.640;   39.715;    0.000;734.92561
 361.96;  392.605; -349.601;    0.000;742.20602
 362.13;  810.242;   63.038;    0.000;747.20411
 362.30;  877.442;  172.879;    0.000;704.56360
 362.46;  662.074;  -89.746;    0.000;751.82069
 362.63;  558.760; -204.431;    0.000;763.19090
 362.79; 1095.604;  396.117;    0.000;699.48702
 362.96;  755.888;   15.109;    0.000;740.77872
 363.12;  903.428;  115.182;    0.000;788.24607
 363.29;  723.126; -124.129;    0.000;847.25532
 363.46;  999.098;  156.837;    0.000;842.26075
 363.62; 1306.854;  513.729;    0.000;793.12414
 363.79;  517.504;  -98.535;    0.000;616.03976
 363.95;  696.334;  -38.260;    0.000;734.59383
 364.12;  955.359;  253.287;    0.000;702.07190
 364.29;  588.076; -140.423;    0.000;728.49919
 364.45;  733.100;    9.842;    0.000;723.25825
 364.62;  771.585;  102.316;    0.000;669.26897
 364.78;  799.673;  173.372;    0.000;626.30168
 364.95;  966.471;  239.272;    0.000;727.19868
 365.11;  689.276;  104.630;    0.000;584.64519
 365.28;  503.635;  -73.631;    0.000;577.26559
 365.45;  918.795;  272.525;    0.000;646.26999
 365.61;  646.864;  -84.315;    0.000;731.17916
 365.78;  782.176;  130.924;    0.000;651.25194
 365.94;  611.095;  -94.063;    0.000;705.15774
 366.11;  879.203;  197.194;    0.000;682.00851
 366.27;  914.538;  282.803;    0.000;631.73485
 366.44;  700.537;   67.521;    0.000;633.01584
 366.61;  377.139; -233.556;    0.000;610.69435
 366.77;  934.247;  339.743;    0.000;594.50463
 366.94;  481.881; -200.559;    0.000;682.44020
 367.10;  658.167;   -7.468;    0.000;665.63493
 367.27;  427.682; -294.836;    0.000;722.51871
 367.43;  998.877;  271.259;    0.000;727.61820
 367.60; 1420.478;  704.394;    0.000;716.08320
 367.77;  574.055;  -84.989;    0.000;659.04315
 367.93;  489.252; -191.888;    0.000;681.14013
 368.10;  868.576;  210.083;    0.000;658.49244
 368.26;  695.217;  -38.468;    0.000;733.68555
 368.43;  756.082;   93.323;    0.000;662.75920
 368.59;  348.613; -278.196;    0.000;626.80955
 368.76; 1087.599;  355.413;    0.000;732.18650
 368.92;  756.413;  -28.291;    0.000;784.70403
 369.09;  880.923;  145.825;    0.000;735.09831
 369.26;  611.656; -192.307;    0.000;803.96213
 369.42;  894.969;  252.896;    0.000;642.07293
 369.59;  841.944;  116.749;    0.000;725.19486
 369.75;  654.231;  -49.613;    0.000;703.84358
 369.92;  910.706;  274.229;    0.000;636.47778
 370.08;  958.879;  319.676;    0.000;639.20221
 370.25;  617.972;  -53.458;    0.000;671.42993
 370.42;  440.963; -213.490;    0.000;654.45341
 370.58;  423.406; -249.160;    0.000;672.56552
 370.75;  786.431;  115.387;    0.000;671.04358
 370.91;  892.681;  164.041;    0.000;728.64020
 371.08; 1014.607;  335.458;    0.000;679.14953
 371.24;  584.746;  -70.528;    0.000;655.27336
 371.41; 1355.755;  687.400;    0.000;668.35539
 371.57;  588.293; -108.827;    0.000;697.11973
 371.74;  825.632;  158.923;    0.000;666.70858
 371.90;  647.572;  -63.899;    0.000;711.47043
 372.07;  642.408;  -10.260;    0.000;652.66851
 372.24;  781.377;   81.365;    0.000;700.01145
 372.40;  539.868; -149.733;    0.000;689.60118
 372.57; 1027.230;  217.946;    0.000;809.28408
 372.73;  676.272;  -12.951;    0.000;689.22318
 372.90;  775.605;   90.158;    0.000;685.44651
 373.06;  908.989;  209.139;    0.000;699.85047
 373.23;  454.424; -145.881;    0.000;600.30506
 373.39;  846.756;  208.882;    0.000;637.87439
 373.56; 1176.299;  512.360;    0.000;663.93925
 373.73;  422.291; -210.350;    0.000;632.64123
 373.89;  444.915; -275.621;    0.000;720.53529
 374.06;  792.983;  165.152;    0.000;627.83095
 374.22;  784.443;   56.520;    0.000;727.92311
 374.39;  947.160;  204.169;    0.000;742.99090
 374.55;  966.716;  251.197;    0.000;715.51929
 374.72;  980.691;  298.450;    0.000;682.24123
 374.88;  485.849; -248.493;    0.000;734.34262
 375.05;  734.785;   17.716;    0.000;717.06897
 375.21;  421.309; -322.166;    0.000;743.47528
 375.38;  770.570;  100.978;    0.000;669.59193
 375.54;  616.764;  -81.608;    0.000;698.37241
 375.71;  486.456; -202.507;    0.000;688.96213
 375.88;  642.487;  -26.173;    0.000;668.65973
 376.04; 1115.277;  397.553;    0.000;717.72371
 376.21;  624.147;  -92.205;    0.000;716.35187
 376.37;  808.329;  180.012;    0.000;628.31783
 376.54;  364.665; -380.274;    0.000;744.93866
 376.70; 1068.889;  301.191;    0.000;767.69773
 376.87;  724.946;  -25.887;    0.000;750.83286
 377.03;  548.681; -280.159;    0.000;828.84020
 377.20;  598.999; -208.228;    0.000;807.22700
 377.36;  958.686;  286.545;    0.000;672.14072
 377.53; 1217.752;  470.859;    0.000;746.89288
 377.69;  674.621;  -14.528;    0.000;689.14806
 377.86;  450.315; -360.421;    0.000;810.73529
 378.02;  752.844;   -3.639;    0.000;756.48260
 378.19;  623.707; -180.130;    0.000;803.83727
 378.35;  734.591;  -18.097;    0.000;752.68848
 378.52;  842.325;   70.948;    0.000;771.37681
 378.69; 1042.778;  289.888;    0.000;752.88995
 378.85;  763.771;   59.060;    0.000;704.71093
 379.02;  878.998;  164.130;    0.000;714.86749
 379.18;  523.217; -214.668;    0.000;737.88555
 379.35; 1035.460;  340.157;    0.000;695.30315
 379.51;  876.547;  162.154;    0.000;714.39237
 379.68;  633.769;  -45.104;    0.000;678.87293
 379.84;  626.244; -151.598;    0.000;777.84211
 380.01;  962.351;  269.977;    0.000;692.37389
 380.17;  594.268; -148.733;    0.000;743.00118
 380.34; 1133.469;  393.949;    0.000;739.52018
 380.50;  975.671;  237.272;    0.000;738.39868
 380.67; 1023.003;  315.194;    0.000;707.80851
 380.83;  413.835; -284.631;    0.000;698.46559
 381.00;  499.499; -243.881;    0.000;743.37975
 381.16;  502.128; -235.565;    0.000;737.69332
 381.33; 1111.253;  399.888;    0.000;711.36465
 381.49;  630.901; -103.117;    0.000;734.01776
 381.66; 1029.776;  290.924;    0.000;738.85194
 381.82;  437.071; -347.487;    0.000;784.55818
 381.99;  752.501;   83.324;    0.000;669.17726
 382.15;  916.243;  209.320;    0.000;706.92311
 382.32;  784.326;   68.071;    0.000;716.25532
 382.48;  460.856; -273.866;    0.000;734.72165
 382.65;  725.926;    8.271;    0.000;717.65532
 382.81;  723.097;  -13.058;    0.000;736.15525
 382.98; 1080.337;  381.880;    0.000;698.45635
 383.14;  280.564; -432.408;    0.000;712.97241
 383.31; 1041.733;  208.658;    0.000;833.07483
 383.47; 1040.222;  -48.404;    0.000;1088.62656
 383.64; 1091.266;  249.862;    0.000;841.40367
 383.80;  688.856;  -44.907;    0.000;733.76213
 383.97;  724.724;   12.307;    0.000;712.41732
 384.13;  753.135;  -14.737;    0.000;767.87234
 384.30;  778.724;  116.266;    0.000;662.45782
 384.46;  692.262;  -40.279;    0.000;732.54116
 384.63;  765.049;   77.707;    0.000;687.34262
 384.79;  432.347; -309.605;    0.000;741.95187
 384.96;  551.037; -228.467;    0.000;779.50360
 385.12;  659.590;  -79.379;    0.000;738.96947
 385.29;  717.732;   64.417;    0.000;653.31533
 385.45;  666.237;  -70.867;    0.000;737.10360
 385.62;  609.616;  -94.791;    0.000;704.40704
 385.78; 1093.710;  427.569;    0.000;666.14028
 385.95;  603.171; -143.781;    0.000;746.95143
 386.11;  774.146;    1.313;    0.000;772.83286
 386.28;  552.617; -167.709;    0.000;720.32604
 386.44;  572.819; -237.545;    0.000;810.36405
 386.61; 1062.209;  288.381;    0.000;773.82803
 386.77;  698.095;  -38.463;    0.000;736.55774
 386.94;  605.380; -156.148;    0.000;761.52795
 387.10;  584.527; -154.288;    0.000;738.81482
 387.27; 1150.591;  409.703;    0.000;740.88848
 387.43;  896.515;   42.620;    0.000;853.89479
 387.60;  588.932; -187.983;    0.000;776.91533
 387.76;  530.470; -260.769;    0.000;791.23917
 387.93;  647.178;  -36.553;    0.000;683.73045
 388.09;  877.572;  110.542;    0.000;767.02993
 388.26;  469.496; -287.581;    0.000;757.07674
 388.42;  366.678; -393.900;    0.000;760.57770
 388.59;  984.647;  318.143;    0.000;666.50463
 388.75; 1141.251;  344.471;    0.000;796.78063
 388.92;  646.113; -122.944;    0.000;769.05679
 389.08;  519.924; -231.988;    0.000;751.91181
 389.25; 1109.612;  419.081;    0.000;690.53103
 389.41; 1173.080;  198.264;    0.000;974.81570
 389.58;  989.096;  135.419;    0.000;853.67674
 389.74;  643.984; -169.525;    0.000;813.50946
 389.91;  993.113;  180.056;    0.000;813.05679
 390.07;  954.031;   80.587;    0.000;873.44358
 390.24;  799.229;   24.823;    0.000;774.40557
 390.40;  524.623; -229.122;    0.000;753.74556
 390.57;  679.572;  -40.058;    0.000;719.62993
 390.73;  909.128;  199.794;    0.000;709.33382
 390.90;  628.718;  -62.280;    0.000;690.99780
 391.06;  360.180; -426.189;    0.000;786.36845
 391.23;  803.367;   45.838;    0.000;757.52942
 391.39; 1011.242;  236.238;    0.000;775.00411
 391.55;  912.555;  154.905;    0.000;757.64989
 391.72;  909.319;  172.043;    0.000;737.27629
 391.88;  658.023;  -87.522;    0.000;745.54556
 392.05; 1122.887;  374.027;    0.000;748.85973
 392.21;  762.151;   34.177;    0.000;727.97389
 392.38;  496.928; -256.206;    0.000;753.13382
 392.54; 1172.447;  404.302;    0.000;768.14511
 392.71;  864.094;  123.496;    0.000;740.59823
 392.87;  577.804; -181.124;    0.000;758.92750
 393.04;  991.296;  202.619;    0.000;788.67674
 393.20;  744.910;  -17.325;    0.000;762.23478
 393.37;  929.165;  126.674;    0.000;802.49142
 393.53; 1481.322;  662.848;    0.000;818.47380
 393.70;  654.226; -177.717;    0.000;831.94307
 393.86;  968.380;  220.947;    0.000;747.43344
 394.03; 1081.340;  299.327;    0.000;782.01335
 394.19;  730.257;  -35.183;    0.000;765.44065
 394.35;  822.465; -121.674;    0.000;944.13866
 394.52; 1096.682;   -0.077;    0.000;1096.75920
 394.68; 2083.418; -190.786;    0.000;2274.20455
 394.85; 4477.105;  165.906;    0.000;4311.19927
 395.01; 2919.333; -121.901;    0.000;3041.23434
 395.18; 1255.321;   93.525;    0.000;1161.79530
 395.34;  937.000;   54.695;    0.000;882.30550
 395.51;  541.882; -252.836;    0.000;794.71871
 395.67;  612.719; -176.198;    0.000;788.91679
 395.84; 1458.680;  693.000;    0.000;765.68071
 396.00;  529.392; -229.415;    0.000;758.80748
 396.17;  742.122;  -94.593;    0.000;836.71430
 396.33;  545.116; -159.339;    0.000;704.45429
 396.49; 1361.213;  665.363;    0.000;695.85003
 396.66;  892.405;   71.758;    0.000;820.64651
 396.82;  586.969; -153.545;    0.000;740.51343
 396.99;  860.056;   99.134;    0.000;760.92165
 397.15;  857.349;  119.359;    0.000;737.98987
 397.32; 1284.025;  553.401;    0.000;730.62406
 397.48;  790.023;   57.878;    0.000;732.14556
 397.65;  800.716;    1.661;    0.000;799.05429
 397.81; 1181.506;  409.829;    0.000;771.67778
 397.97;  636.721; -101.034;    0.000;737.75481
 398.14;  724.773;   83.478;    0.000;641.29493
 398.30;  392.219; -414.104;    0.000;806.32355
 398.47; 1008.426;  343.777;    0.000;664.64856
 398.63; 1372.833;  545.351;    0.000;827.48158
 398.80;  752.941;   -9.750;    0.000;762.69186
 398.96;  481.374; -326.894;    0.000;808.26793
 399.13; 1395.417;  598.691;    0.000;796.72604
 399.29; 1031.682;  293.323;    0.000;738.35920
 399.46; 1013.996;  328.166;    0.000;685.82948
 399.62;  566.864; -245.915;    0.000;812.77916
 399.78;  816.102;   95.165;    0.000;720.93675
 399.95;  808.261;   50.639;    0.000;757.62215
 400.11;  708.308;  -34.648;    0.000;742.95627
 400.28;  485.431; -280.572;    0.000;766.00308
 400.44;  985.205;  201.999;    0.000;783.20602
 400.61;  998.412;  283.986;    0.000;714.42553
 400.77; 1193.718;  407.320;    0.000;786.39780
 400.93;  471.914; -189.662;    0.000;661.57579
 401.10;  916.074;  148.454;    0.000;767.62069
 401.26;  607.042;  -56.721;    0.000;663.76360
 401.43;  853.037;   98.374;    0.000;754.66310
 401.59;  789.019;  -32.745;    0.000;821.76405
 401.76;  849.384;   58.075;    0.000;791.30946
 401.92;  463.547; -300.805;    0.000;764.35187
 402.09;  564.616; -136.350;    0.000;700.96655
 402.25;  271.470; -462.569;    0.000;734.03917
 402.41;  911.138;  155.603;    0.000;755.53485
 402.58;  996.306;  220.029;    0.000;776.27778
 402.74;  650.821;  -86.086;    0.000;736.90755
 402.91;  468.252; -316.488;    0.000;784.74013
 403.07; 1188.229;  428.664;    0.000;759.56508
 403.24; 1623.119;  834.843;    0.000;788.27629
 403.40;  644.526; -167.729;    0.000;812.25532
 403.56;  895.087;   66.427;    0.000;828.65973
 403.73; 1170.351;  333.777;    0.000;836.57389
 403.89; 1285.988;  227.362;    0.000;1058.62597
 404.06; 1446.763;   59.551;    0.000;1387.21292
 404.22; 3788.077; -341.541;    0.000;4129.61820
 404.39;10238.046;    4.861;    0.000;10233.18562
 404.55; 8207.239;  741.538;    0.000;7465.70110
 404.71; 4410.651;  353.630;    0.000;4057.02113
 404.88; 2081.037;  -52.026;    0.000;2133.06310
 405.04; 1788.316;  737.503;    0.000;1050.81379
 405.21; 1307.097;  342.901;    0.000;964.19575
 405.37; 1290.012;  287.386;    0.000;1002.62553
 405.53;  991.413;  -40.891;    0.000;1032.30403
 405.70;  803.167;    1.197;    0.000;801.96992
 405.86;  917.656;  144.934;    0.000;772.72165
 406.03;  866.332;  144.217;    0.000;722.11533
 406.19;  394.412; -285.773;    0.000;680.18503
 406.36; 1366.132;  605.176;    0.000;760.95584
 406.52;  776.243;   32.120;    0.000;744.12311
 406.68;  896.623;  149.878;    0.000;746.74556
 406.85;  541.806; -222.160;    0.000;763.96552
 407.01;  976.488;  213.468;    0.000;763.01922
 407.18; 1430.392;  624.385;    0.000;806.00748
 407.34;  729.158;   -3.395;    0.000;732.55290
 407.50;  657.210; -131.537;    0.000;788.74703
 407.67; 1052.017;  384.532;    0.000;667.48555
 407.83;  786.199;   75.413;    0.000;710.78650
 408.00;  863.875;  115.336;    0.000;748.53969
 408.16;  825.193;   32.626;    0.000;792.56699
 408.33; 1044.165;  301.674;    0.000;742.49142
 408.49;  991.296;  212.660;    0.000;778.63624
 408.65;  624.125;  -39.252;    0.000;663.37681
 408.82;  671.247; -145.193;    0.000;816.43962
 408.98; 1259.973;  466.783;    0.000;793.18944
 409.15;  765.754;   47.023;    0.000;718.73089
 409.31;  620.823;  -96.722;    0.000;717.54556
 409.47;  588.447; -201.952;    0.000;790.39912
 409.64; 1381.017;  617.491;    0.000;763.52604
 409.80;  853.773;   19.183;    0.000;834.58944
 409.97;  786.599;   21.772;    0.000;764.82700
 410.13; 1002.901;  136.324;    0.000;866.57726
 410.29;  866.566;  135.515;    0.000;731.05092
 410.46;  765.706;   52.829;    0.000;712.87778
 410.62;  891.936;  137.639;    0.000;754.29684
 410.79;  673.598; -113.070;    0.000;786.66749
 410.95;  834.674;   73.813;    0.000;760.86118
 411.11;  957.638;  224.056;    0.000;733.58209
 411.28;  453.835; -295.390;    0.000;749.22509
 411.44;  481.128; -318.006;    0.000;799.13382
 411.61;  921.763;  195.951;    0.000;725.81292
 411.77;  927.662;  183.680;    0.000;743.98166
 411.93;  991.998;  300.130;    0.000;691.86749
 412.10;  531.948; -214.923;    0.000;746.87087
 412.26; 1085.777;  357.965;    0.000;727.81145
 412.43;  481.321; -295.034;    0.000;776.35481
 412.59;  384.974; -308.399;    0.000;693.37343
 412.75;  735.300;  -98.758;    0.000;834.05825
 412.92; 1500.270;  687.431;    0.000;812.83917
 413.08; 1037.311;  244.157;    0.000;793.15378
 413.24; 1048.980;  337.906;    0.000;711.07395
 413.41;  943.552;  115.900;    0.000;827.65239
 413.57;  974.725;  214.748;    0.000;759.97681
 413.74;  897.512;   40.880;    0.000;856.63228
 413.90;  898.138;  109.162;    0.000;788.97534
 414.06;  808.684;  -50.472;    0.000;859.15671
 414.23;  811.245;  122.179;    0.000;689.06661
 414.39;  663.070; -178.010;    0.000;841.07968
 414.56;  733.515; -105.621;    0.000;839.13529
 414.72;  482.558; -392.754;    0.000;875.31240
 414.88;  927.069;   -5.251;    0.000;932.32018
 415.05; 1105.199;   72.613;    0.000;1032.58650
 415.21; 1080.301;  -54.917;    0.000;1135.21776
 415.37; 1556.497; -191.858;    0.000;1748.35525
 415.54; 4415.904;  592.865;    0.000;3823.03976
 415.70;17016.464;  151.044;    0.000;16865.41966
 415.87;29674.933;  -20.701;    0.000;29695.63434
 416.03;10665.786; -126.161;    0.000;10791.94746
 416.19; 3577.785;  106.316;    0.000;3471.46897
 416.36; 4998.188;  450.257;    0.000;4547.93148
 416.52; 3118.528; -132.206;    0.000;3250.73382
 416.69; 1582.407;  199.522;    0.000;1382.88452
 416.85;  926.795;  -59.075;    0.000;985.86999
 417.01; 1065.266;  186.503;    0.000;878.76316
 417.18; 1086.789;  242.498;    0.000;844.29097
 417.34;  694.845; -200.716;    0.000;895.56112
 417.50;  923.517;   92.838;    0.000;830.67881
 417.67;  882.405;  -62.201;    0.000;944.60602
 417.83; 1628.413;  538.604;    0.000;1089.80955
 418.00; 2221.831; -334.013;    0.000;2555.84358
 418.16; 5118.126;  178.671;    0.000;4939.45532
 418.32; 2700.701; -156.676;    0.000;2857.37726
 418.49; 1442.715;  111.820;    0.000;1330.89479
 418.65; 1454.457;  115.575;    0.000;1338.88114
 418.81; 2919.437;  210.774;    0.000;2708.66310
 418.98; 8757.153;  364.982;    0.000;8392.17138
 419.14; 8791.217;  -82.109;    0.000;8873.32604
 419.30; 2912.161; -115.949;    0.000;3028.10991
 419.47; 2466.749;  217.654;    0.000;2249.09537
 419.63; 5695.081;  -18.454;    0.000;5713.53470
 419.80;15078.864;  -52.356;    0.000;15131.21966
 419.96;26705.797;  -64.752;    0.000;26770.54849
 420.12;24110.258;   33.099;    0.000;24077.15964
 420.29; 6534.052;  355.312;    0.000;6178.74013
 420.45; 2242.249;  345.066;    0.000;1897.18313
 420.61;  813.581; -425.907;    0.000;1239.48746
 420.78; 1329.821;  378.514;    0.000;951.30755
 420.94; 1025.168;   83.479;    0.000;941.68892
 421.10;  759.944; -106.492;    0.000;866.43536
 421.27;  607.276; -289.223;    0.000;896.49919
 421.43;  694.945; -107.010;    0.000;801.95435
 421.59;  917.848;  -33.111;    0.000;950.95862
 421.76;  580.604; -169.283;    0.000;749.88702
 421.92;  626.180; -204.189;    0.000;830.36845
 422.09;  973.648;  121.825;    0.000;851.82361
 422.25; 1068.097;  162.742;    0.000;905.35525
 422.41;  522.017; -288.868;    0.000;810.88555
 422.58;  601.558; -191.954;    0.000;793.51240
 422.74;  844.225;   -7.399;    0.000;851.62406
 422.90;  914.000;   63.854;    0.000;850.14600
 423.07;  486.273; -223.469;    0.000;709.74219
 423.23;  810.978;   -1.153;    0.000;812.13045
 423.39; 1283.003;  533.235;    0.000;749.76801
 423.56; 1249.444;  379.602;    0.000;869.84211
 423.72;  890.163;  124.951;    0.000;765.21292
 423.88;  600.723; -232.511;    0.000;833.23331
 424.05; 1477.258;  564.058;    0.000;913.20015
 424.21; 1283.204;  491.476;    0.000;791.72750
 424.37;  747.716;  -46.897;    0.000;794.61379
 424.54;  917.086;    9.851;    0.000;907.23522
 424.70;  937.925;   21.853;    0.000;916.07131
 424.86; 1114.512; -117.920;    0.000;1232.43228
 425.03; 1774.934; -275.260;    0.000;2050.19383
 425.19; 1515.768; -412.121;    0.000;1927.88892
 425.35; 1127.799;  -30.187;    0.000;1157.98650
 425.52; 1372.988;    3.321;    0.000;1369.66647
 425.68; 2741.448;  106.625;    0.000;2634.82361
 425.84; 7735.129; -233.083;    0.000;7968.21232
 426.01; 7315.896;  281.219;    0.000;7034.67674
 426.17; 2172.476; -165.223;    0.000;2337.69919
 426.33; 2135.408;  106.740;    0.000;2028.66851
 426.50; 4862.999; -430.028;    0.000;5293.02700
 426.66; 6779.148;  240.436;    0.000;6538.71137
 426.83; 2749.119; -152.692;    0.000;2901.81130
 426.99; 4226.220;  201.431;    0.000;4024.78854
 427.15;10657.089;  143.791;    0.000;10513.29773
 427.32; 7193.219;  193.655;    0.000;6999.56405
 427.48; 2172.307;  188.911;    0.000;1983.39677
 427.64;  981.599;  -93.828;    0.000;1075.42700
 427.80;  977.091;  -60.045;    0.000;1037.13573
 427.97; 1050.814;  224.286;    0.000;826.52853
 428.13;  999.687;   62.974;    0.000;936.71372
 428.29;  575.132; -193.583;    0.000;768.71533
 428.46;  970.418;  159.814;    0.000;810.60455
 428.62;  921.845;   67.884;    0.000;853.96112
 428.78;  913.666;   65.367;    0.000;848.29817
 428.95; 1194.738;  394.762;    0.000;799.97534
 429.11;  584.089; -246.209;    0.000;830.29773
 429.27;  934.658;   28.099;    0.000;906.55964
 429.44;  907.073;  -39.723;    0.000;946.79619
 429.60; 1184.257;   -1.025;    0.000;1185.28114
 429.76; 2535.038; -136.185;    0.000;2671.22260
 429.93; 7483.477;  -34.382;    0.000;7517.85869
 430.09; 5692.885; -301.190;    0.000;5994.07572
 430.25; 1870.161;   -4.508;    0.000;1874.66940
 430.42;  803.046; -305.634;    0.000;1108.68011
 430.58; 1068.250;  173.189;    0.000;895.06163
 430.74;  886.820;   -1.022;    0.000;887.84255
 430.91; 1362.303;  475.647;    0.000;886.65576
 431.07;  976.936;  159.945;    0.000;816.99134
 431.23;  877.289;   60.191;    0.000;817.09773
 431.40;  918.362;   81.733;    0.000;836.62891
 431.56;  754.592;  -74.615;    0.000;829.20748
 431.72;  726.588; -119.638;    0.000;846.22597
 431.89;  840.966;   22.556;    0.000;818.41042
 432.05;  846.141;  -37.391;    0.000;883.53236
 432.21; 1137.429;  334.464;    0.000;802.96508
 432.37;  952.784;   95.475;    0.000;857.30946
 432.54; 1146.107;  269.311;    0.000;876.79677
 432.70; 1012.867;   60.049;    0.000;952.81717
 432.86;  813.272; -214.846;    0.000;1028.11768
 433.03; 1610.083;    0.005;    0.000;1610.07821
 433.19; 4823.782; -163.730;    0.000;4987.51196
 433.35; 9268.727;  197.912;    0.000;9070.81482
 433.52; 5416.193; -313.333;    0.000;5729.52649
 433.68; 2157.401; -182.823;    0.000;2340.22450
 433.84; 1472.121;  247.766;    0.000;1224.35481
 434.01; 1349.737;  225.786;    0.000;1123.95084
 434.17; 1100.299;   -3.881;    0.000;1104.17975
 434.33; 2154.671;  136.913;    0.000;2017.75818
 434.49; 3366.461;  175.039;    0.000;3191.42215
 434.66; 1503.795; -296.169;    0.000;1799.96449
 434.82;  966.504;  -38.671;    0.000;1005.17477
 434.98;  615.386; -186.961;    0.000;802.34746
 435.15; 1131.430;  349.346;    0.000;782.08408
 435.31;  978.110;  239.116;    0.000;738.99427
 435.47;  923.617;  337.932;    0.000;585.68555
 435.64;  989.456; 1106.934;    0.000;-117.47835
 435.80; 1499.689; 2873.391;    0.000;-1373.70227
 435.96; 1340.466; 1532.208;    0.000;-191.74234
 436.12;  761.585;  145.316;    0.000;616.26897
 436.29;  994.530;   19.558;    0.000;974.97183
 436.45; 1101.948;  233.236;    0.000;868.71137
 436.61;  890.801;   90.177;    0.000;800.62450
 436.78;  946.242;  178.079;    0.000;768.16360
 436.94;  395.653; -420.965;    0.000;816.61864
 437.10;  810.769;   83.255;    0.000;727.51343
 437.26;  887.356;   46.387;    0.000;840.96889
 437.43; 1082.252;  298.553;    0.000;783.69963
 437.59;  514.136; -302.296;    0.000;816.43185
 437.75;  722.263;   -2.797;    0.000;725.06016
 437.92;  838.947;  129.554;    0.000;709.39237
 438.08;  857.789;  109.139;    0.000;748.65047
 438.24;  553.672; -213.205;    0.000;766.87718
 438.41;  527.437; -193.826;    0.000;721.26310
 438.57; 1028.524;  214.171;    0.000;814.35232
 438.73;  575.454; -179.283;    0.000;754.73764
 438.89;  936.422;   56.660;    0.000;879.76156
 439.06; 1019.708;  182.752;    0.000;836.95627
 439.22;  824.841; -138.739;    0.000;963.57960
 439.38;  724.605; -150.242;    0.000;874.84651
 439.54;  756.252;  -72.047;    0.000;828.29963
 439.71;  999.203;  263.194;    0.000;736.00851
 439.87; 1257.571;  486.460;    0.000;771.11093
 440.03;  859.900;  154.842;    0.000;705.05825
 440.20;  707.329;  -35.924;    0.000;743.25283
 440.36; 1448.884;  653.887;    0.000;794.99721
 440.52;  817.282;  -42.131;    0.000;859.41321
 440.68; 1025.128;  221.835;    0.000;803.29332
 440.85;  690.685;  -74.431;    0.000;765.11621
 441.01; 1189.716;  380.661;    0.000;809.05429
 441.17; 1095.772;  310.501;    0.000;785.27043
 441.34;  962.358;  175.046;    0.000;787.31240
 441.50;  650.905; -140.348;    0.000;791.25327
 441.66; 1174.620;  380.178;    0.000;794.44255
 441.82; 1071.340;  230.368;    0.000;840.97285
 441.99;  775.190;   31.380;    0.000;743.80998
 442.15;  487.568; -326.321;    0.000;813.88892
 442.31; 1036.108;  119.593;    0.000;916.51577
 442.47; 1109.113;  159.521;    0.000;949.59178
 442.64;  743.849;   -3.134;    0.000;746.98313
 442.80;  478.151; -329.677;    0.000;807.82788
 442.96; 1102.400;  317.654;    0.000;784.74600
 443.13;  727.059;  -41.419;    0.000;768.47865
 443.29;  568.706; -167.612;    0.000;736.31826
 443.45;  429.329; -327.683;    0.000;757.01232
 443.61; 1152.976;  339.630;    0.000;813.34644
 443.78;  787.478;   16.900;    0.000;770.57770
 443.94;  944.719;  206.843;    0.000;737.87629
 444.10;  316.588; -411.238;    0.000;727.82597
 444.26; 1186.193;  447.626;    0.000;738.56699
 444.43;  706.318; -161.174;    0.000;867.49230
 444.59;  626.224; -129.881;    0.000;756.10506
 444.75;  582.333; -139.901;    0.000;722.23434
 444.91;  726.662;  -10.879;    0.000;737.54116
 445.08; 1328.324;  442.012;    0.000;886.31181
 445.24;  605.871; -176.687;    0.000;782.55818
 445.40;  434.684; -336.072;    0.000;770.75671
 445.56; 1245.418;  439.573;    0.000;805.84505
 445.73;  916.889;   41.097;    0.000;875.79222
 445.89;  655.009; -191.873;    0.000;846.88202
 446.05;  821.286;   19.651;    0.000;801.63522
 446.21; 1119.502;  371.965;    0.000;747.53675
 446.38;  660.634; -171.567;    0.000;832.20059
 446.54;  670.753;  -41.018;    0.000;711.77138
 446.70;  559.064; -222.715;    0.000;781.77916
 446.86; 1096.901;  363.483;    0.000;733.41776
 447.03;  819.161;   50.451;    0.000;768.70991
 447.19;  506.981; -252.266;    0.000;759.24695
 447.35;  598.562; -219.467;    0.000;818.02891
 447.51;  955.102;  190.165;    0.000;764.93675
 447.68;  940.309;  179.034;    0.000;761.27528
 447.84;  704.694;   17.655;    0.000;687.03873
 448.00;  884.662;  114.880;    0.000;769.78166
 448.16;  890.521;  170.966;    0.000;719.55481
 448.33;  685.845;  -22.357;    0.000;708.20161
 448.49; 1364.015;  650.168;    0.000;713.84754
 448.65;  762.851;  -87.665;    0.000;850.51563
 448.81;  730.029;   31.423;    0.000;698.60557
 448.98;  683.803; -144.900;    0.000;828.70301
 449.14;  767.221; -112.181;    0.000;879.40205
 449.30; 1156.637;   91.974;    0.000;1064.66310
 449.46; 1963.078;  952.300;    0.000;1010.77770
 449.63; 1321.079;   14.223;    0.000;1306.85620
 449.79; 1137.116; -187.539;    0.000;1324.65429
 449.95;  890.777;  -76.688;    0.000;967.46544
 450.11;  970.641;  109.261;    0.000;861.37960
 450.28;  782.857; -125.319;    0.000;908.17564
 450.44;  773.695;  -68.022;    0.000;841.71724
 450.60; 1031.942;  110.491;    0.000;921.45135
 450.76; 1473.274;  214.054;    0.000;1259.22069
 450.93; 3869.234;  243.192;    0.000;3626.04109
 451.09; 4147.443; -252.080;    0.000;4399.52311
 451.25; 1690.222; -158.540;    0.000;1848.76156
 451.41; 1134.399;  123.972;    0.000;1010.42700
 451.57; 1168.580;  299.011;    0.000;869.56845
 451.74;  881.769;  -75.239;    0.000;957.00792
 451.90;  525.926; -398.424;    0.000;924.34982
 452.06; 1616.354;   77.223;    0.000;1539.13089
 452.22; 2046.965;   27.274;    0.000;2019.69142
 452.39; 1514.182;  351.175;    0.000;1163.00646
 452.55;  710.930; -216.801;    0.000;927.73133
 452.71; 1140.897;  301.342;    0.000;839.55525
 452.87;  868.000;  142.654;    0.000;725.34600
 453.03;  569.760; -156.390;    0.000;726.15040
 453.20;  892.505;   56.411;    0.000;836.09376
 453.36; 1092.045;  330.243;    0.000;761.80161
 453.52; 1092.370;  311.284;    0.000;781.08643
 453.68;  648.664;   -3.956;    0.000;652.61966
 453.85;  606.333; -241.196;    0.000;847.52883
 454.01; 1076.730;  318.894;    0.000;757.83683
 454.17;  643.692; -210.563;    0.000;854.25473
 454.33;  935.311;   33.557;    0.000;901.75378
 454.49;  580.774; -375.894;    0.000;956.66793
 454.66;  787.471;   11.913;    0.000;775.55818
 454.82;  897.191;   91.167;    0.000;806.02348
 454.98;  471.391; -182.538;    0.000;653.92897
 455.14;  711.331;  -37.360;    0.000;748.69083
 455.31; 1046.561;  304.892;    0.000;741.66940
 455.47; 1214.723;  341.530;    0.000;873.19281
 455.63;  512.361; -256.708;    0.000;769.06940
 455.79;  936.144;  139.214;    0.000;796.92987
 455.95; 1182.933;  473.858;    0.000;709.07483
 456.12;  450.640; -255.421;    0.000;706.06060
 456.28;  771.925;  -12.947;    0.000;784.87131
 456.44;  668.828; -136.353;    0.000;805.18107
 456.60;  903.817;  205.091;    0.000;698.72604
 456.76;  904.640;   97.020;    0.000;807.62010
 456.93; 1112.053;  285.994;    0.000;826.05913
 457.09;  892.400;  132.895;    0.000;759.50550
 457.25; 1007.163;  246.615;    0.000;760.54791
 457.41;  867.239;  108.897;    0.000;758.34160
 457.57;  762.619;   35.696;    0.000;726.92355
 457.74;  533.542; -230.509;    0.000;764.05135
 457.90; 1127.736;  366.145;    0.000;761.59134
 458.06;  839.588;   25.562;    0.000;814.02597
 458.22;  722.885;    0.610;    0.000;722.27572
 458.39;  294.549; -471.082;    0.000;765.63038
 458.55; 1078.018;  292.573;    0.000;785.44505
 458.71;  629.460; -181.737;    0.000;811.19765
 458.87;  633.575; -250.011;    0.000;883.58694
 459.03;  697.355; -142.695;    0.000;840.04989
 459.20;  910.508;  143.793;    0.000;766.71577
 459.36; 1115.049;   56.666;    0.000;1058.38313
 459.52; 2156.322;   47.248;    0.000;2109.07380
 459.68; 1415.545; -211.063;    0.000;1626.60836
 459.84; 1388.291;  412.914;    0.000;975.37623
 460.00;  794.112;  -18.161;    0.000;812.27278
 460.17; 1105.507;  378.111;    0.000;727.39677
 460.33;  314.409; -470.673;    0.000;785.08202
 460.49; 1178.496;  412.219;    0.000;766.27674
 460.65;  912.532;  150.563;    0.000;761.96933
 460.81;  724.153;   15.382;    0.000;708.77138
 460.98;  705.538;  -76.091;    0.000;781.62935
 461.14; 1151.015;  366.832;    0.000;784.18254
 461.30;  727.379;  -37.965;    0.000;765.34395
 461.46;  873.601;   27.936;    0.000;845.66501
 461.62;  281.600; -427.146;    0.000;708.74600
 461.79; 1137.156;  306.946;    0.000;830.20939
 461.95;  773.631;  -12.907;    0.000;786.53808
 462.11;  616.115; -155.380;    0.000;771.49479
 462.27;  554.475; -275.800;    0.000;830.27469
 462.43;  657.715; -122.380;    0.000;780.09479
 462.60; 1279.983;  249.857;    0.000;1030.12546
 462.76; 1462.595; -115.769;    0.000;1578.36449
 462.92; 1185.466;  -83.833;    0.000;1269.29817
 463.08; 1320.794;  491.108;    0.000;829.68599
 463.24;  950.968;  184.320;    0.000;766.64842
 463.40;  620.497; -107.699;    0.000;728.19575
 463.57;  355.068; -423.869;    0.000;778.93617
 463.73;  926.829;  155.729;    0.000;771.10007
 463.89; 1373.884;  660.887;    0.000;712.99721
 464.05;  795.699;  -30.135;    0.000;825.83374
 464.21;  412.441; -410.698;    0.000;823.13910
 464.37;  870.606;  133.081;    0.000;737.52501
 464.54; 1239.272;  530.995;    0.000;708.27718
 464.70;  684.698;  -77.976;    0.000;762.67425
 464.86; 1041.002;  264.218;    0.000;776.78400
 465.02; 1027.864;  287.244;    0.000;740.61966
 465.18;  966.114;  179.244;    0.000;786.87029
 465.35;  340.574; -407.694;    0.000;748.26793
 465.51;  599.680; -194.295;    0.000;793.97520
 465.67; 1095.335;  330.463;    0.000;764.87234
 465.83;  717.602;  -68.582;    0.000;786.18400
 465.99;  778.044;   37.602;    0.000;740.44211
 466.15;  811.248; -164.470;    0.000;975.71812
 466.32; 1613.200; -122.746;    0.000;1735.94600
 466.48; 2108.640; -132.821;    0.000;2241.46060
 466.64; 2361.879;  -27.818;    0.000;2389.69670
 466.80; 3567.152; -184.794;    0.000;3751.94688
 466.96; 2172.627;   83.765;    0.000;2088.86207
 467.12; 1139.022;   21.701;    0.000;1117.32105
 467.29;  949.686;   81.292;    0.000;868.39472
 467.45;  617.981; -190.666;    0.000;808.64695
 467.61;  827.879;   34.223;    0.000;793.65620
 467.77; 1237.034;  441.633;    0.000;795.40059
 467.93;  515.298; -205.417;    0.000;720.71474
 468.09;  732.326; -107.865;    0.000;840.19032
 468.25;  906.331;  172.040;    0.000;734.29083
 468.42;  942.900;  116.706;    0.000;826.19325
 468.58; 1104.033;  303.951;    0.000;800.08158
 468.74;  304.976; -388.929;    0.000;693.90594
 468.90;  996.937;  251.786;    0.000;745.15084
 469.06;  863.660;   32.622;    0.000;831.03815
 469.22;  581.966; -162.644;    0.000;744.61042
 469.39;  872.212;  115.227;    0.000;756.98503
 469.55;  811.328;   71.194;    0.000;740.13382
 469.71;  765.860;  -69.537;    0.000;835.39765
 469.87; 1045.348;  139.477;    0.000;905.87087
 470.03; 2001.690;  282.832;    0.000;1718.85722
 470.19; 2941.853;  336.394;    0.000;2605.45913
 470.35; 1717.588;  237.962;    0.000;1479.62597
 470.52;  835.673; -100.123;    0.000;935.79619
 470.68;  488.214; -333.009;    0.000;821.22303
 470.84; 1275.675;  473.895;    0.000;801.78019
 471.00;  751.073;  -71.923;    0.000;822.99619
 471.16;  887.795;  112.590;    0.000;775.20499
 471.32;  330.292; -388.404;    0.000;718.69524
 471.49; 1077.565;  351.633;    0.000;725.93192
 471.65; 1277.493;  497.119;    0.000;780.37373
 471.81;  649.936;  -85.655;    0.000;735.59134
 471.97;  428.790; -374.715;    0.000;803.50447
 472.13;  927.098;  176.824;    0.000;750.27425
 472.29;  758.553;   18.741;    0.000;739.81189
 472.45;  634.344; -124.786;    0.000;759.12987
 472.62;  845.332;   39.122;    0.000;806.20983
 472.78; 1051.490;  247.632;    0.000;803.85722
 472.94;  837.140;   28.232;    0.000;808.90785
 473.10;  509.343; -344.427;    0.000;853.77036
 473.26;  542.759; -260.608;    0.000;803.36640
 473.42;  590.935; -120.778;    0.000;711.71284
 473.58;  921.500;  112.906;    0.000;808.59325
 473.74; 1067.590;  223.726;    0.000;843.86398
 473.91;  393.352; -397.394;    0.000;790.74688
 474.07;  749.458;   -2.942;    0.000;752.40015
 474.23; 1123.085;  251.010;    0.000;872.07572
 474.39;  623.697; -262.699;    0.000;886.39575
 474.55; 1316.419;  280.096;    0.000;1036.32355
 474.71; 1571.421;  282.819;    0.000;1288.60205
 474.87; 1152.232;  -49.025;    0.000;1201.25708
 475.04; 1420.569; -143.198;    0.000;1563.76742
 475.20; 1194.255; -516.242;    0.000;1710.49714
 475.36; 1463.304;  336.729;    0.000;1126.57477
 475.52;  787.919;  -63.092;    0.000;851.01130
 475.68;  863.137;   53.786;    0.000;809.35084
 475.84;  608.583; -206.543;    0.000;815.12546
 476.00; 1206.310;  451.075;    0.000;755.23478
 476.16; 1106.183;  258.257;    0.000;847.92546
 476.33;  761.019;  -46.545;    0.000;807.56405
 476.49;  520.165; -346.980;    0.000;867.14542
 476.65; 1347.089;  463.591;    0.000;883.49773
 476.81; 1249.579;  183.635;    0.000;1065.94395
 476.97;  937.819;   49.296;    0.000;888.52355
 477.13;  510.120; -367.369;    0.000;877.48980
 477.29; 1852.347; 1065.395;    0.000;786.95187
 477.45; 1090.079;  304.623;    0.000;785.45620
 477.61;  854.253;   70.794;    0.000;783.45913
 477.78; 1219.448;  459.889;    0.000;759.55862
 477.94; 1471.119;  606.708;    0.000;864.41130
 478.10;  771.491;  -40.645;    0.000;812.13573
 478.26;  706.161; -105.908;    0.000;812.06940
 478.42; 1276.868;  402.931;    0.000;873.93617
 478.58;  817.212;   67.627;    0.000;749.58503
 478.74; 1092.730;  265.558;    0.000;827.17183
 478.90;  723.253; -101.765;    0.000;825.01864
 479.07;  568.924; -285.188;    0.000;854.11181
 479.23; 1542.735;  752.022;    0.000;790.71284
 479.39;  675.769; -133.839;    0.000;809.60792
 479.55;  767.074;  -99.082;    0.000;866.15568
 479.71;  807.629;  -91.871;    0.000;899.50007
 479.87; 1161.994;  238.908;    0.000;923.08599
 480.03; 1015.390;   90.485;    0.000;924.90447
 480.19;  869.590;   -6.715;    0.000;876.30447
 480.35;  876.739;  -99.609;    0.000;976.34835
 480.51; 1031.202;   77.059;    0.000;954.14351
 480.68;  939.338;    6.668;    0.000;932.66985
 480.84; 1294.870;  154.390;    0.000;1140.47968
 481.00; 1066.516; -163.739;    0.000;1230.25429
 481.16; 1052.156;  136.387;    0.000;915.76889
 481.32; 1442.389;  232.244;    0.000;1210.14497
 481.48; 1119.651;  -81.770;    0.000;1201.42113
 481.64;  734.533; -365.596;    0.000;1100.12883
 481.80; 1215.282;  133.828;    0.000;1081.45370
 481.96; 1002.267;  -28.951;    0.000;1031.21717
 482.13; 1419.716;  422.303;    0.000;997.41379
 482.29;  871.023; -275.258;    0.000;1146.28056
 482.45;  850.769; -187.439;    0.000;1038.20792
 482.61; 1268.293;  236.278;    0.000;1032.01423
 482.77; 1307.172;  378.701;    0.000;928.47043
 482.93;  475.126; -471.024;    0.000;946.14982
 483.09; 1153.575;  165.589;    0.000;987.98694
 483.25;  942.401;   96.536;    0.000;845.86501
 483.41; 1041.485;   89.610;    0.000;951.87572
 483.57; 1013.969;   47.961;    0.000;966.00792
 483.73; 1484.420;  566.337;    0.000;918.08305
 483.90; 1171.919;  263.308;    0.000;908.61130
 484.06; 1060.463;  215.603;    0.000;844.86016
 484.22;  747.220; -134.663;    0.000;881.88305
 484.38; 1457.004;  674.917;    0.000;782.08702
 484.54; 1367.447;  483.048;    0.000;884.39912
 484.70; 1429.612;  593.186;    0.000;836.42553
 484.86;  673.183; -145.543;    0.000;818.72546
 485.02; 1033.970;  268.084;    0.000;765.88643
 485.18; 1306.134;  487.245;    0.000;818.88833
 485.34; 1263.852;  511.353;    0.000;752.49963
 485.50;  896.889;   72.456;    0.000;824.43272
 485.66; 1154.186;  365.598;    0.000;788.58797
 485.83; 1199.178;  192.394;    0.000;1006.78445
 485.99; 1966.938;  162.509;    0.000;1804.42935
 486.15; 1717.713;  -35.638;    0.000;1753.35128
 486.31; 1637.171;  557.325;    0.000;1079.84593
 486.47;  930.153;   62.447;    0.000;867.70638
 486.63;  813.820;   14.978;    0.000;798.84255
 486.79;  955.616;   96.914;    0.000;858.70154
 486.95; 1197.570;  361.684;    0.000;835.88643
 487.11; 1352.006;  556.681;    0.000;795.32501
 487.27; 1206.375;  368.547;    0.000;837.82744
 487.43; 1139.701;   94.629;    0.000;1045.07175
 487.59; 1688.740;  425.673;    0.000;1263.06735
 487.75; 1046.766;   90.061;    0.000;956.70491
 487.92; 1100.054;  226.517;    0.000;873.53764
 488.08;  777.150;  -77.200;    0.000;854.34938
 488.24; 1555.435;  624.116;    0.000;931.31959
 488.40; 1392.625;  531.042;    0.000;861.58357
 488.56; 1279.836;  159.957;    0.000;1119.87909
 488.72; 1305.628;  -64.312;    0.000;1369.94057
 488.88; 1817.233;  686.110;    0.000;1131.12208
 489.04; 1287.552;  308.806;    0.000;978.74688
 489.20; 1032.928;  155.835;    0.000;877.09332
 489.36; 1119.519;   78.508;    0.000;1041.01130
 489.52; 1579.494;  553.602;    0.000;1025.89273
 489.68; 1233.603;  356.541;    0.000;877.06251
 489.84; 1234.037;  469.574;    0.000;764.46310
 490.00;  660.687; -209.226;    0.000;869.91372
 490.16; 1671.304;  856.729;    0.000;814.57477
 490.33; 1284.705;  340.852;    0.000;943.85327
 490.49;  976.664;  164.044;    0.000;812.61966
 490.65;  935.623;   11.183;    0.000;924.44006
 490.81; 1385.918;  485.826;    0.000;900.09230
 490.97; 1606.683;  717.046;    0.000;889.63771
 491.13;  950.428;   59.047;    0.000;891.38107
 491.29; 1012.788;  204.321;    0.000;808.46647
 491.45; 1778.942;  952.732;    0.000;826.21086
 491.61; 1578.715;  640.085;    0.000;938.62979
 491.77;  975.453;   74.994;    0.000;900.45913
 491.93; 1253.326;  195.376;    0.000;1057.94982
 492.09; 1382.511;  458.157;    0.000;924.35378
 492.25; 1143.035;  161.675;    0.000;981.36009
 492.41;  991.956;   72.546;    0.000;919.40939
 492.57;  981.010;  -47.391;    0.000;1028.40103
 492.73; 1477.038;  548.615;    0.000;928.42260
 492.89; 1132.712;  197.080;    0.000;935.63228
 493.05;  929.008;   17.645;    0.000;911.36302
 493.22;  967.229;   -8.230;    0.000;975.45957
 493.38; 1256.877;  302.859;    0.000;954.01820
 493.54; 1106.550;   97.600;    0.000;1008.94938
 493.70; 1061.338;   59.268;    0.000;1002.06985
 493.86;  779.403; -213.300;    0.000;992.70301
 494.02; 1289.511;  365.598;    0.000;923.91328
 494.18; 1173.657;  160.017;    0.000;1013.64065
 494.34;  982.561;   50.851;    0.000;931.70991
 494.50;  524.794; -439.492;    0.000;964.28599
 494.66; 1790.332;  817.617;    0.000;972.71533
 494.82; 1652.045;  588.884;    0.000;1063.16112
 494.98; 1013.995;   21.590;    0.000;992.40499
 495.14;  714.275; -371.000;    0.000;1085.27469
 495.30; 1355.370;  366.243;    0.000;989.12692
 495.46; 1180.823;   66.983;    0.000;1113.84006
 495.62; 1445.627;  185.165;    0.000;1260.46207
 495.78;  838.452; -319.342;    0.000;1157.79413
 495.94; 1378.251;  357.630;    0.000;1020.62113
 496.10; 1063.028;   20.688;    0.000;1042.34057
 496.26; 1061.022;    1.660;    0.000;1059.36156
 496.42;  956.553;  -96.153;    0.000;1052.70638
 496.58; 1408.717;  397.144;    0.000;1011.57329
 496.74; 1339.838;  349.856;    0.000;989.98209
 496.90; 1239.529;  221.876;    0.000;1017.65283
 497.06;  866.540; -288.168;    0.000;1154.70785
 497.22; 1809.498;  515.624;    0.000;1293.87425
 497.38; 1980.193;  353.172;    0.000;1627.02098
 497.55; 3396.671;   19.872;    0.000;3376.79868
 497.71;14338.325; -445.706;    0.000;14784.03082
 497.87;15898.898;  335.183;    0.000;15563.71474
 498.03;14728.332;  548.363;    0.000;14179.96933
 498.19;34636.914;  -34.062;    0.000;34670.97579
 498.35;19660.043; -216.575;    0.000;19876.61761
 498.51; 6213.713;  478.321;    0.000;5735.39178
 498.67; 2883.487;  428.133;    0.000;2455.35422
 498.83; 1692.582;   89.575;    0.000;1603.00646
 498.99;  984.042; -420.616;    0.000;1404.65811
 499.15; 1663.493;  361.678;    0.000;1301.81423
 499.31; 1655.852;  465.112;    0.000;1190.74013
 499.47; 1125.064;   -8.356;    0.000;1133.41966
 499.63;  810.269; -322.346;    0.000;1132.61467
 499.79; 1187.379;   56.370;    0.000;1131.00895
 499.95; 1482.867;  307.490;    0.000;1175.37667
 500.11; 1550.641;  337.861;    0.000;1212.77960
 500.27;  983.737; -138.814;    0.000;1122.55084
 500.43; 1296.654;  114.476;    0.000;1182.17813
 500.59; 1413.682;  193.069;    0.000;1220.61321
 500.75;  981.212; -118.214;    0.000;1099.42553
 500.91;  727.423; -360.617;    0.000;1088.04006
 501.07; 1482.622;  332.460;    0.000;1150.16156
 501.23; 1102.607;   -5.037;    0.000;1107.64402
 501.39; 1004.574; -111.694;    0.000;1116.26793
 501.55; 1078.074;  -94.882;    0.000;1172.95568
 501.71; 1580.257;  368.681;    0.000;1211.57564
 501.87;  841.223; -262.217;    0.000;1103.44006
 502.03; 1115.461;   21.239;    0.000;1094.22215
 502.19;  878.802; -232.182;    0.000;1110.98400
 502.35; 1924.509;  806.234;    0.000;1118.27528
 502.51; 1207.661;   45.945;    0.000;1161.71665
 502.67;  938.284; -140.113;    0.000;1078.39721
 502.83;  827.726; -314.624;    0.000;1142.34982
 502.99; 1993.008;  814.645;    0.000;1178.36302
 503.15; 1468.696;  279.660;    0.000;1189.03624
 503.31; 1047.653; -172.965;    0.000;1220.61864
 503.47;  821.931; -402.719;    0.000;1224.65033
 503.63; 1510.382;  338.375;    0.000;1172.00646
 503.79; 1468.681;  324.346;    0.000;1144.33470
 503.95;  859.690; -192.727;    0.000;1052.41672
 504.11; 1454.305;  285.811;    0.000;1168.49376
 504.27; 1693.176;  548.830;    0.000;1144.34644
 504.43; 1122.431;   61.028;    0.000;1061.40308
 504.59; 1209.452;   28.312;    0.000;1181.14013
 504.75; 1394.870; -105.505;    0.000;1500.37417
 504.91; 1421.293;    6.119;    0.000;1415.17373
 505.07; 1933.337;  714.186;    0.000;1219.15084
 505.23; 1309.873;  -20.564;    0.000;1330.43668
 505.39;  979.901; -437.012;    0.000;1416.91225
 505.55; 1652.499;  306.265;    0.000;1346.23374
 505.71; 1467.326;  115.935;    0.000;1351.39032
 505.87; 1802.628;  173.647;    0.000;1628.98107
 506.03; 1286.054; -357.324;    0.000;1643.37813
 506.19; 1853.957;  524.269;    0.000;1329.68789
 506.35; 1612.502;  433.765;    0.000;1178.73675
 506.51; 1098.443; -186.975;    0.000;1285.41761
 506.67; 1057.489; -274.344;    0.000;1331.83272
 506.83; 1592.361;  288.092;    0.000;1304.26940
 506.99; 1735.273;  364.677;    0.000;1370.59619
 507.15; 1308.621;  -44.581;    0.000;1353.20205
 507.31; 1079.931; -292.319;    0.000;1372.25033
 507.47; 2058.351;  731.482;    0.000;1326.86838
 507.63; 1833.729;  557.676;    0.000;1276.05283
 507.79; 1191.883;  -27.554;    0.000;1219.43771
 507.95;  811.005; -462.336;    0.000;1273.34101
 508.11; 2115.723;  849.289;    0.000;1266.43331
 508.27; 1257.161;  -39.108;    0.000;1296.26940
 508.43; 1236.003;  -66.700;    0.000;1302.70301
 508.59; 1128.365; -313.221;    0.000;1441.58591
 508.75; 1572.048;  173.289;    0.000;1398.75862
 508.91; 1430.879;  129.223;    0.000;1301.65620
 509.07; 1712.951;  334.923;    0.000;1378.02788
 509.23;  987.416; -354.686;    0.000;1342.10154
 509.39; 1677.215;  345.632;    0.000;1331.58254
 509.55; 1725.788;  433.962;    0.000;1291.82597
 509.71; 1355.943;   84.773;    0.000;1271.17036
 509.86;  988.433; -257.690;    0.000;1246.12208
 510.02; 1320.652;  104.153;    0.000;1216.49963
 510.18; 1403.844;  161.907;    0.000;1241.93661
 510.34; 1068.652; -179.088;    0.000;1247.74013
 510.50;  845.078; -374.259;    0.000;1219.33719
 510.66; 1297.336;  111.145;    0.000;1186.19134
 510.82; 1285.630;   56.746;    0.000;1228.88408
 510.98;  967.947; -178.205;    0.000;1146.15187
 511.14; 1105.329; -129.683;    0.000;1235.01232
 511.30; 1790.904;  553.770;    0.000;1237.13426
 511.46; 1437.351;  192.482;    0.000;1244.86838
 511.62; 1185.768;  -78.080;    0.000;1263.84842
 511.78;  864.257; -484.625;    0.000;1348.88114
 511.94; 1934.955;  657.664;    0.000;1277.29039
 512.10; 1280.859;  -24.060;    0.000;1304.91915
 512.26; 1039.797; -190.446;    0.000;1230.24299
 512.42; 1160.169;  -15.998;    0.000;1176.16742
 512.58; 1598.660;  401.463;    0.000;1197.19765
 512.74; 1460.620;  256.737;    0.000;1203.88305
 512.90; 1056.216; -216.286;    0.000;1272.50154
 513.06; 1114.326; -144.224;    0.000;1258.54982
 513.22; 1586.601;  370.777;    0.000;1215.82450
 513.38;  959.313; -386.279;    0.000;1345.59178
 513.54; 1209.711;  -12.602;    0.000;1222.31328
 513.70;  668.079; -540.818;    0.000;1208.89670
 513.86; 1588.783;  386.298;    0.000;1202.48496
 514.01; 1161.033; -102.890;    0.000;1263.92208
 514.17; 1174.145;  -46.369;    0.000;1220.51387
 514.33; 1102.464; -202.556;    0.000;1305.01966
 514.49; 1602.617;  135.132;    0.000;1467.48555
 514.65; 3502.861;  223.304;    0.000;3279.55715
 514.81; 5961.534;  -47.419;    0.000;6008.95334
 514.97; 4050.677; -254.982;    0.000;4305.65869
 515.13; 7691.298;  435.183;    0.000;7256.11474
 515.29;10613.459;  265.740;    0.000;10347.71915
 515.45; 4760.556;  199.387;    0.000;4561.16889
 515.61; 1908.601; -267.223;    0.000;2175.82450
 515.77; 1666.971;  206.260;    0.000;1460.71093
 515.93; 2005.965;  236.379;    0.000;1769.58591
 516.09; 3053.680;  -52.536;    0.000;3106.21570
 516.25; 2218.132; -569.237;    0.000;2787.36933
 516.41; 1854.724;  231.971;    0.000;1622.75232
 516.57; 1540.468;  179.131;    0.000;1361.33617
 516.73; 1313.756;   55.946;    0.000;1257.80939
 516.89;  936.995; -291.610;    0.000;1228.60499
 517.04; 1635.649;  454.307;    0.000;1181.34262
 517.20; 1210.617;  -36.163;    0.000;1246.78004
 517.36;  862.575; -318.253;    0.000;1180.82744
 517.52; 1217.237; -169.120;    0.000;1386.35759
 517.68; 1516.890;  165.873;    0.000;1351.01672
 517.84; 1610.459;  272.181;    0.000;1338.27865
 518.00; 1557.981;  281.734;    0.000;1276.24695
 518.16;  858.210; -496.191;    0.000;1354.40103
 518.32; 1729.079;  369.223;    0.000;1359.85620
 518.48; 1964.369;  256.961;    0.000;1707.40792
 518.64; 3676.976;  105.630;    0.000;3571.34644
 518.80; 2420.390; -631.274;    0.000;3051.66398
 518.96; 1854.155;  167.264;    0.000;1686.89039
 519.12; 1523.215;   66.032;    0.000;1457.18254
 519.28;  894.748; -376.964;    0.000;1271.71137
 519.43; 1168.064; -104.556;    0.000;1272.61966
 519.59; 1535.535;  314.822;    0.000;1220.71284
 519.75; 1226.653;  -15.206;    0.000;1241.85913
 519.91; 1088.109; -222.366;    0.000;1310.47528
 520.07;  833.400; -438.434;    0.000;1271.83409
 520.23; 1580.463;  322.566;    0.000;1257.89709
 520.39; 1271.927;   39.166;    0.000;1232.76009
 520.55; 1402.990;  109.167;    0.000;1293.82308
 520.71;  992.253; -318.033;    0.000;1310.28609
 520.87; 1811.317;  420.168;    0.000;1391.14908
 521.03; 1739.580;  406.768;    0.000;1332.81208
 521.19; 1754.643;  488.368;    0.000;1266.27508
 521.34;  829.507; -483.231;    0.000;1312.73807
 521.50; 1892.170;  423.969;    0.000;1468.20108
 521.66; 1611.234;  197.570;    0.000;1413.66407
 521.82; 1717.897;  191.770;    0.000;1526.12707
 521.98; 1883.360; -542.030;    0.000;2425.39007
 522.14; 2745.024;  402.771;    0.000;2342.25306
 522.30; 1624.887;   26.171;    0.000;1598.71607
 522.46; 1083.151; -286.829;    0.000;1369.97906
 522.62;  905.014; -330.028;    0.000;1235.04207
 522.78; 1644.277;  376.172;    0.000;1268.10506
 522.94; 1612.541;  334.973;    0.000;1277.56806
 523.10; 1224.804;  -99.027;    0.000;1323.83106
 523.25;  983.267; -283.227;    0.000;1266.49405
 523.41; 1453.931;  153.374;    0.000;1300.55706
 523.57; 1658.394;  341.774;    0.000;1316.62005
 523.73; 1112.258; -142.625;    0.000;1254.88305
 523.89;  953.121; -314.225;    0.000;1267.34605
 524.05; 1504.584;   56.775;    0.000;1447.80904
 524.21; 1842.248;  418.976;    0.000;1423.27205
 524.37; 1380.911;   93.776;    0.000;1287.13504
 524.53;  956.374; -474.024;    0.000;1430.39804
 524.69; 1910.038;  523.577;    0.000;1386.46104
 524.84; 1826.501;  467.377;    0.000;1359.12403
 525.00; 1367.965; -204.022;    0.000;1571.98704
 525.16; 1483.028; -541.622;    0.000;2024.65003
 525.32; 2279.491;  354.978;    0.000;1924.51304
 525.48; 1705.355;  108.779;    0.000;1596.57603
 525.64; 1291.818; -160.021;    0.000;1451.83903
 525.80; 1092.482; -331.221;    0.000;1423.70203
 525.96; 1763.145;  432.780;    0.000;1330.36502
 526.12; 1468.008;  126.780;    0.000;1341.22803
 526.28; 1188.472; -132.419;    0.000;1320.89102
 526.43;  735.135; -535.019;    0.000;1270.15402
 526.59; 1293.798;   10.181;    0.000;1283.61702
 526.75; 1704.462;  410.982;    0.000;1293.48001
 526.91; 1209.525; -126.818;    0.000;1336.34302
 527.07; 1016.389; -300.017;    0.000;1316.40601
 527.23; 1587.652;  227.783;    0.000;1359.86901
 527.39; 1690.915;  308.783;    0.000;1382.13201
 527.55; 1092.179; -272.616;    0.000;1364.79500
 527.71; 1206.242; -140.016;    0.000;1346.25801
 527.86; 1872.705;  356.384;    0.000;1516.32100
 528.02; 2429.769;  871.185;    0.000;1558.58401
 528.18; 1332.032; -117.015;    0.000;1449.04700
 528.34; 1038.096; -388.814;    0.000;1426.90999
 528.50; 1931.159;  412.386;    0.000;1518.77299
 528.66; 1408.422;   53.586;    0.000;1354.83599
 528.82; 1271.486; -110.013;    0.000;1381.49899
 528.98; 1126.549; -293.213;    0.000;1419.76198
 529.14; 1916.613;  549.588;    0.000;1367.02499
 529.29; 1383.876;  -14.612;    0.000;1398.48798
 529.45;  932.139; -500.012;    0.000;1432.15098
 529.61;  984.403; -460.811;    0.000;1445.21398
 529.77; 1745.666;  173.189;    0.000;1572.47697
 529.93; 2063.529;  454.589;    0.000;1608.93998
 530.09; 1863.993;  362.990;    0.000;1501.00297
 530.25; 1295.656; -196.210;    0.000;1491.86597
 530.41; 1473.920;  -15.409;    0.000;1489.32897
 530.56; 1509.183;   83.391;    0.000;1425.79197
 530.72; 1204.446; -169.609;    0.000;1374.05497
 530.88; 1117.710; -417.208;    0.000;1534.91796
 531.04; 1779.173;  450.592;    0.000;1328.58096
 531.20; 1999.036;  632.592;    0.000;1366.44396
 531.36; 1538.500;  117.593;    0.000;1420.90696
 531.52;  801.363; -532.207;    0.000;1333.56996
 531.68; 1855.027;  289.394;    0.000;1565.63295
 531.83; 1576.890;   43.594;    0.000;1533.29595
 531.99; 1236.753; -183.206;    0.000;1419.95895
 532.15;  874.017; -625.005;    0.000;1499.02195
 532.31; 1788.480;  275.995;    0.000;1512.48495
 532.47; 1539.143;   85.996;    0.000;1453.14794
 532.63; 1226.207; -212.004;    0.000;1438.21095
 532.79;  864.270; -553.404;    0.000;1417.67394
 532.94; 1452.134;  105.997;    0.000;1346.13694
 533.10; 1351.397;   38.397;    0.000;1312.99994
 533.26; 1296.860;  -47.003;    0.000;1343.86294
 533.42; 1161.524; -145.402;    0.000;1306.92594
 533.58; 1939.587;  624.598;    0.000;1314.98893
 533.74; 1664.251;  260.599;    0.000;1403.65193
 533.90; 1178.914; -338.401;    0.000;1517.31493
 534.05; 1505.177;  -56.001;    0.000;1561.17793
 534.21; 2488.241;  925.000;    0.000;1563.24093
 534.37; 1911.104;  359.400;    0.000;1551.70392
 534.53; 1328.767; -234.799;    0.000;1563.56692
 534.69; 1146.031; -458.599;    0.000;1604.62992
 534.85; 2441.294;  852.801;    0.000;1588.49292
 535.01; 1741.358;  274.802;    0.000;1466.55592
 535.16; 1069.821; -387.998;    0.000;1457.81891
 535.32; 1307.684; -160.398;    0.000;1468.08191
 535.48; 2259.348;  812.203;    0.000;1447.14491
 535.64; 1642.411;  244.403;    0.000;1398.00791
 535.80; 1411.674;  -19.996;    0.000;1431.67091
 535.96; 1567.938;  122.404;    0.000;1445.53391
 536.12; 1866.401;  504.204;    0.000;1362.19690
 536.27; 1746.265;  386.605;    0.000;1359.65990
 536.43; 1864.528;  453.205;    0.000;1411.32290
 536.59;  898.991; -493.995;    0.000;1392.98590
 536.75; 2147.055;  632.006;    0.000;1515.04890
 536.91; 1917.318;  401.006;    0.000;1516.31190
 537.07; 2075.982;  416.207;    0.000;1659.77489
 537.22; 1705.845; -125.593;    0.000;1831.43789
 537.38; 2217.308;  417.807;    0.000;1799.50089
 537.54; 2004.172;  279.408;    0.000;1724.76389
 537.70; 1484.435; -208.392;    0.000;1692.82689
 537.86; 1288.498; -316.191;    0.000;1604.68988
 538.02; 2886.962; 1268.409;    0.000;1618.55288
 538.17; 1787.025;  212.409;    0.000;1574.61588
 538.33; 1587.289;    5.410;    0.000;1581.87888
 538.49; 1363.552;  -44.790;    0.000;1408.34188
 538.65; 1981.015;  675.410;    0.000;1305.60488
 538.81; 2075.479;  729.211;    0.000;1346.26787
 538.97; 1274.542;  -67.789;    0.000;1342.33087
 539.13; 1385.405;   66.412;    0.000;1318.99387
 539.28; 2183.869;  815.212;    0.000;1368.65687
 539.44; 1638.332;  255.012;    0.000;1383.31987
 539.60; 1451.196;  107.013;    0.000;1344.18286
 539.76; 1428.859;   44.213;    0.000;1384.64586
 539.92; 1779.522;  368.014;    0.000;1411.50886
 540.07; 2005.386;  552.214;    0.000;1453.17186
 540.23; 1775.449;  386.214;    0.000;1389.23486
 540.39; 1394.113; -103.785;    0.000;1497.89786
 540.55; 2317.776;  815.015;    0.000;1502.76086
 540.71; 2100.639;  516.015;    0.000;1584.62385
 540.87; 2294.503;  658.816;    0.000;1635.68685
 541.02; 1852.566;  237.616;    0.000;1614.94985
 541.18; 2155.629;  760.417;    0.000;1395.21285
 541.34; 2611.693; 1363.617;    0.000;1248.07585
 541.50; 1941.156;  842.217;    0.000;1098.93884
 541.66; 1906.420;  912.818;    0.000;993.60184
 541.82; 2090.483; 1301.618;    0.000;788.86484
 541.97; 2583.346; 1380.018;    0.000;1203.32784
 542.13; 2243.010; 1259.819;    0.000;983.19084
 542.29; 1768.673; 1344.219;    0.000;424.45384
 542.45; 2690.536; 2343.420;    0.000;347.11683
 542.61; 2307.400; 1875.020;    0.000;432.37983
 542.76; 1760.863; 1277.620;    0.000;483.24283
 542.92; 1573.727;  931.221;    0.000;642.50583
 543.08; 2033.190; 1440.221;    0.000;592.96883
 543.24; 2333.853; 1687.422;    0.000;646.43183
 543.40; 1835.517; 1290.622;    0.000;544.89482
 543.56; 1732.780; 1060.822;    0.000;671.95782
 543.71; 3117.044; 2368.423;    0.000;748.62082
 543.87; 2646.507; 1478.623;    0.000;1167.88382
 544.03; 2273.770; 1108.823;    0.000;1164.94682
 544.19; 2360.034; 1112.624;    0.000;1247.40982
 544.35; 3112.297; 1874.224;    0.000;1238.07281
 544.50; 2670.960; 1591.425;    0.000;1079.53581
 544.66; 2009.824;  987.225;    0.000;1022.59881
 544.82; 1839.887;  744.425;    0.000;1095.46181
 544.98; 3721.551; 1669.026;    0.000;2052.52481
 545.14; 3945.214; 1597.226;    0.000;2347.98780
 545.29; 2106.677;  831.227;    0.000;1275.45080
 545.45; 1663.541;  597.427;    0.000;1066.11380
 545.61; 2462.604; 1177.027;    0.000;1285.57680
 545.77; 2628.067; 1713.028;    0.000;915.03980
 545.93; 2375.731; 3311.028;    0.000;-935.29720
 546.08; 1838.794; 2451.628;    0.000;-612.83421
 546.24; 2277.258; 1756.229;    0.000;521.02879
 546.40; 1956.921; 1010.629;    0.000;946.29179
 546.56; 1397.784;  216.430;    0.000;1181.35478
 546.72; 1541.648;  235.430;    0.000;1306.21778
 546.87; 1870.311;  543.430;    0.000;1326.88078
 547.03; 1905.174;  527.031;    0.000;1378.14378
 547.19; 1787.838;  169.031;    0.000;1618.80677
 547.35; 1969.901;  266.431;    0.000;1703.46977
 547.51; 2101.365;  376.032;    0.000;1725.33277
 547.66; 2379.628;  597.432;    0.000;1782.19577
 547.82; 2015.891;  184.433;    0.000;1831.45877
 547.98; 1841.955;  -66.167;    0.000;1908.12176
 548.14; 2970.818;  937.433;    0.000;2033.38476
 548.29; 2339.682;  337.034;    0.000;2002.64776
 548.45; 2179.345;  170.434;    0.000;2008.91076
 548.61; 2199.608;  183.635;    0.000;2015.97376
 548.77; 3149.672; 1212.435;    0.000;1937.23676
 548.93; 2613.535;  648.835;    0.000;1964.69975
 549.08; 2039.198;   -9.764;    0.000;2048.96275
 549.24; 2313.462;   69.436;    0.000;2244.02575
 549.40; 5242.125;  910.436;    0.000;4331.68875
 549.56; 5653.989;  569.837;    0.000;5084.15175
 549.72; 3068.852;  113.637;    0.000;2955.21474
 549.87; 2078.315;  -44.362;    0.000;2122.67774
 550.03; 2751.579;  764.438;    0.000;1987.14074
 550.19; 2504.442;  606.038;    0.000;1898.40374
 550.35; 1882.905; -164.761;    0.000;2047.66674
 550.50; 2297.569; -194.961;    0.000;2492.52973
 550.66; 2703.432;  556.840;    0.000;2146.59273
 550.82; 2221.096;  440.240;    0.000;1780.85573
 550.98; 1661.559;   39.040;    0.000;1622.51873
 551.14; 1923.822;  424.841;    0.000;1498.98173
 551.29; 2284.686;  649.641;    0.000;1635.04473
 551.45; 1957.949;  407.841;    0.000;1550.10772
 551.61; 1847.613;  371.242;    0.000;1476.37072
 551.77; 1346.076; -220.958;    0.000;1567.03372
 551.92; 1998.739;  492.643;    0.000;1506.09672
 552.08; 1832.003;  165.043;    0.000;1666.95972
 552.24; 1513.866; -175.757;    0.000;1689.62271
 552.40; 1799.929;  -80.356;    0.000;1880.28571
 552.55; 2446.393;  681.444;    0.000;1764.94871
 552.71; 2398.056;  722.244;    0.000;1675.81171
 552.87; 1724.720;   66.045;    0.000;1658.67471
 553.03; 1428.783; -351.555;    0.000;1780.33771
 553.19; 2485.246;  531.846;    0.000;1953.40070
 553.34; 2525.510;  553.246;    0.000;1972.26370
 553.50; 1940.373; -116.154;    0.000;2056.52670
 553.66; 1958.636;  -70.753;    0.000;2029.38970
 553.82; 2526.700;  276.847;    0.000;2249.85270
 553.97; 2428.363;  114.648;    0.000;2313.71569
 554.13; 2467.227;  226.048;    0.000;2241.17869
 554.29; 2077.490; -300.952;    0.000;2378.44169
 554.45; 2818.753;  519.249;    0.000;2299.50469
 554.60; 2847.417;  209.649;    0.000;2637.76769
 554.76; 2329.280; -224.151;    0.000;2553.43069
 554.92; 2311.944; -295.150;    0.000;2607.09368
 555.08; 3066.007;  384.850;    0.000;2681.15668
 555.23; 3374.270;  482.251;    0.000;2892.01968
 555.39; 3197.934;   51.651;    0.000;3146.28268
 555.55; 2980.197; -473.349;    0.000;3453.54568
 555.71; 7125.460;  495.652;    0.000;6629.80868
 555.86; 6873.124;  258.652;    0.000;6614.47167
 556.02; 4659.387;  175.253;    0.000;4484.13467
 556.18; 3253.851; -292.747;    0.000;3546.59767
 556.34; 3573.914;  329.653;    0.000;3244.26067
 556.49; 3141.777;  -50.946;    0.000;3192.72367
 556.65; 3008.441;  -12.746;    0.000;3021.18666
 556.81; 2537.104; -581.546;    0.000;3118.64966
 556.97; 3575.367;  240.255;    0.000;3335.11266
 557.12; 4494.631;   82.255;    0.000;4412.37566
 557.28; 3493.094; -193.944;    0.000;3687.03866
 557.44; 3216.558; -139.544;    0.000;3356.10166
 557.60; 3726.621;  670.056;    0.000;3056.56465
 557.75; 3578.284;  525.057;    0.000;3053.22765
 557.91; 2712.148;   55.857;    0.000;2656.29065
 558.07; 3170.211;  309.257;    0.000;2860.95365
 558.23; 3136.875;  445.258;    0.000;2691.61665
 558.38; 2964.538;  321.258;    0.000;2643.27965
 558.54; 2089.401; -263.941;    0.000;2353.34264
 558.70; 2359.265; -269.541;    0.000;2628.80564
 558.86; 2774.128;  171.659;    0.000;2602.46864
 559.01; 2970.591;  282.260;    0.000;2688.33164
 559.17; 2428.255;   48.660;    0.000;2379.59464
 559.33; 2076.518; -488.539;    0.000;2565.05763
 559.48; 2676.382;  109.861;    0.000;2566.52063
 559.64; 3250.245;  307.261;    0.000;2942.98363
 559.80; 2595.708; -117.338;    0.000;2713.04663
 559.96; 2245.572; -473.338;    0.000;2718.90963
 560.11; 2763.635;  306.062;    0.000;2457.57263
 560.27; 2923.698;  307.663;    0.000;2616.03562
 560.43; 3605.962; -399.537;    0.000;4005.49862
 560.59; 6182.425; -480.936;    0.000;6663.36162
 560.74; 4723.289;  656.464;    0.000;4066.82462
 560.90; 2977.952;  247.864;    0.000;2730.08762
 561.06; 2099.815; -283.335;    0.000;2383.15062
 561.21; 2038.479; -176.535;    0.000;2215.01361
 561.37; 2492.342;  331.066;    0.000;2161.27661
 561.53; 2097.806;  -10.734;    0.000;2108.53961
 561.69; 2117.869; -154.534;    0.000;2272.40261
 561.84; 2401.132;  142.267;    0.000;2258.86561
 562.00; 2845.396;  501.667;    0.000;2343.72861
 562.16; 2470.059;  209.267;    0.000;2260.79160
 562.32; 2135.922; -182.732;    0.000;2318.65460
 562.47; 1906.586; -480.132;    0.000;2386.71760
 562.63; 2790.249;  509.869;    0.000;2280.38060
 562.79; 2539.513;   95.069;    0.000;2444.44360
 562.94; 1995.176; -382.731;    0.000;2377.90659
 563.10; 2073.239; -214.930;    0.000;2288.16959
 563.26; 2769.503;  228.070;    0.000;2541.43259
 563.42; 3242.166;  553.270;    0.000;2688.89559
 563.57; 2728.229;   95.271;    0.000;2632.95859
 563.73; 2246.693; -206.129;    0.000;2452.82159
 563.89; 3027.356;  506.272;    0.000;2521.08458
 564.04; 2581.220;  -86.928;    0.000;2668.14758
 564.20; 2571.883;   42.072;    0.000;2529.81058
 564.36; 1902.146; -506.127;    0.000;2408.27357
 564.51; 3779.810; 1216.873;    0.000;2562.93657
 564.67; 2312.673; -212.126;    0.000;2524.79957
 564.83; 3156.136; -271.126;    0.000;3427.26257
 564.99; 4466.400; -352.126;    0.000;4818.52557
 565.14; 3617.263;  244.075;    0.000;3373.18857
 565.30; 2662.127;  -31.525;    0.000;2693.65156
 565.46; 2300.790; -274.325;    0.000;2575.11456
 565.61; 2128.853; -364.924;    0.000;2493.77756
 565.77; 2972.517;  236.676;    0.000;2735.84056
 565.93; 2889.580;  274.677;    0.000;2614.90356
 566.09; 2370.444;  -96.523;    0.000;2466.96655
 566.24; 2292.107; -493.323;    0.000;2785.42955
 566.40; 3139.770;  371.478;    0.000;2768.29255
 566.56; 3249.634;  570.878;    0.000;2678.75555
 566.71; 2720.097; -213.721;    0.000;2933.81855
 566.87; 2592.160; -366.321;    0.000;2958.48154
 567.03; 3532.024;  364.279;    0.000;3167.74454
 567.18; 3783.687;  371.880;    0.000;3411.80754
 567.34; 3235.151; -172.920;    0.000;3408.07054
 567.50; 3146.014; -560.520;    0.000;3706.53354
 567.65; 6289.677; 1248.281;    0.000;5041.39654
 567.81; 8230.741;  302.081;    0.000;7928.65953
 567.97;30960.804; -186.918;    0.000;31147.72253
 568.13;61891.067; -417.318;    0.000;62308.38553
 568.28;62102.931;  228.682;    0.000;61874.24853
 568.44;61891.194;   82.283;    0.000;61808.91153
 568.60;62103.058; -217.317;    0.000;62320.37453
 568.75;61891.321; -383.117;    0.000;62274.43752
 568.91;62103.184;  223.884;    0.000;61879.30052
 569.07;61891.448; -121.716;    0.000;62013.16352
 569.22;62103.311;  -13.315;    0.000;62116.62652
 569.38;61891.575; -279.715;    0.000;62171.28952
 569.54;13893.638;  269.685;    0.000;13623.95252
 569.69;44099.901;  175.686;    0.000;43924.21551
 569.85; 8574.765; -286.314;    0.000;8861.07851
 570.01; 9162.028;  -47.313;    0.000;9209.34151
 570.16; 8409.091;    2.487;    0.000;8406.60451
 570.32; 8572.955;   28.287;    0.000;8544.66751
 570.48; 7572.018; -144.112;    0.000;7716.13050
 570.63; 7470.282; -190.712;    0.000;7660.99350
 570.79; 7692.745;  301.088;    0.000;7391.65650
 570.95; 7425.608;  166.889;    0.000;7258.71950
 571.10; 6393.072; -307.111;    0.000;6700.18250
 571.26; 6559.735; -481.310;    0.000;7041.04549
 571.42; 7241.598;  257.690;    0.000;6983.90849
 571.57; 7134.262;  358.490;    0.000;6775.77149
 571.73; 6764.125;  -15.709;    0.000;6779.83449
 571.89; 7560.389;  600.491;    0.000;6959.89749
 572.05; 7574.052;  780.892;    0.000;6793.16049
 572.20; 7495.315;  621.492;    0.000;6873.82348
 572.36; 6448.979; -377.908;    0.000;6826.88648
 572.52; 6674.442; -232.307;    0.000;6906.74948
 572.67; 7749.306;  241.893;    0.000;7507.41248
 572.83; 8166.769;  368.893;    0.000;7797.87548
 572.99; 7433.832;  -53.306;    0.000;7487.13847
 573.14; 7074.096; -504.506;    0.000;7578.60147
 573.30; 8882.559;  368.295;    0.000;8514.26447
 573.45; 8976.622;  286.695;    0.000;8689.92747
 573.61; 8625.686;    0.495;    0.000;8625.19047
 573.77; 9226.149;  -78.504;    0.000;9304.65347
 573.92; 9614.613;  330.496;    0.000;9284.11646
 574.08; 9275.676;  481.696;    0.000;8793.97946
 574.24; 9169.339;   51.697;    0.000;9117.64246
 574.39; 8859.003; -149.303;    0.000;9008.30546
 574.55; 9177.266;  855.698;    0.000;8321.56846
 574.71; 8490.529;  286.498;    0.000;8204.03145
 574.86; 8416.593;   10.098;    0.000;8406.49445
 575.02; 8398.056; -154.701;    0.000;8552.75745
 575.18; 8965.120;  289.699;    0.000;8675.42045
 575.33; 9044.183;  163.700;    0.000;8880.48345
 575.49; 8523.846; -275.900;    0.000;8799.74645
 575.65; 8670.310; -376.700;    0.000;9047.00944
 575.80; 8883.573;   46.901;    0.000;8836.67244
 575.96; 9273.637;  118.901;    0.000;9154.73544
 576.12; 9236.300; -325.899;    0.000;9562.19844
 576.27; 9377.163; -218.698;    0.000;9595.86144
 576.43; 9441.427;  467.502;    0.000;8973.92443
 576.59; 8850.290;   72.903;    0.000;8777.38743
 576.74; 8857.153;  276.703;    0.000;8580.45043
 576.90; 8872.817;   52.903;    0.000;8819.91343
 577.06;10050.280;  622.704;    0.000;9427.57643
 577.21;10446.944;  278.504;    0.000;10168.43942
 577.37;10627.207; -202.495;    0.000;10829.70242
 577.52;10711.070; -399.495;    0.000;11110.56542
 577.68;11474.534;  185.105;    0.000;11289.42842
 577.84;11511.997;   69.906;    0.000;11442.09142
 577.99;11131.460; -145.894;    0.000;11277.35441
 578.15;10809.724; -252.294;    0.000;11062.01741
 578.31;11428.387;  359.107;    0.000;11069.28041
 578.46;10774.651;  230.907;    0.000;10543.74341
 578.62;10797.114;  120.108;    0.000;10677.00641
 578.78;10161.577; -365.892;    0.000;10527.46941
 578.93;11905.641; 1285.308;    0.000;10620.33240
 579.09;12888.504;  953.309;    0.000;11935.19540
 579.24;11952.167;   79.309;    0.000;11872.85840
 579.40;11478.831; -235.491;    0.000;11714.32140
 579.56;12932.494;  859.310;    0.000;12073.18440
 579.71;12146.758;  244.510;    0.000;11902.24740
 579.87;11959.221;  299.911;    0.000;11659.31039
 580.03;12452.484; -317.089;    0.000;12769.57339
 580.18;14533.948;  758.711;    0.000;13775.23639
 580.34;15817.611;  497.512;    0.000;15320.09939
 580.49;17451.675;  625.112;    0.000;16826.56239
 580.65;18328.138; -163.687;    0.000;18491.82538
 580.81;19856.601;  355.513;    0.000;19501.08838
 580.96;20279.665;  551.513;    0.000;19728.15138
 581.12;20113.128;  -47.286;    0.000;20160.41438
 581.28;20725.791; -190.686;    0.000;20916.47738
 581.43;22673.655;  612.114;    0.000;22061.54038
 581.59;21271.918;  442.715;    0.000;20829.20337
 581.74;18171.782;  143.315;    0.000;18028.46637
 581.90;17722.445; -163.484;    0.000;17885.92937
 582.06;20506.108;  728.516;    0.000;19777.59237
 582.21;20158.572;  426.716;    0.000;19731.85537
 582.37;18167.435; -107.083;    0.000;18274.51837
 582.53;17838.498;  106.917;    0.000;17731.58136
 582.68;19060.362; 1043.717;    0.000;18016.64436
 582.84;19685.625;  552.518;    0.000;19133.10736
 582.99;19585.489;   34.118;    0.000;19551.37036
 583.15;19257.552;  -69.481;    0.000;19327.03336
 583.31;21801.615;  911.919;    0.000;20889.69635
 583.46;20423.479;  331.319;    0.000;20092.15935
 583.62;19402.942;  -25.680;    0.000;19428.62235
 583.77;18698.406;  -67.080;    0.000;18765.48535
 583.93;20031.069;  545.121;    0.000;19485.94835
 584.09;20604.732;  720.921;    0.000;19883.81135
 584.24;16579.796;  -23.479;    0.000;16603.27434
 584.40;14926.659;  -75.078;    0.000;15001.73734
 584.55;15427.122;  380.522;    0.000;15046.60034
 584.71;16993.986;  251.922;    0.000;16742.06334
 584.87;17709.049; -131.677;    0.000;17840.72634
 585.02;20164.513; -189.877;    0.000;20354.38933
 585.18;22081.576; 1334.124;    0.000;20747.45233
 585.33;23630.639;  627.324;    0.000;23003.31533
 585.49;27454.303;  556.724;    0.000;26897.57833
 585.65;30303.966; -418.875;    0.000;30722.84133
 585.80;34222.829;  579.725;    0.000;33643.10432
 585.96;34887.293;  604.126;    0.000;34283.16732
 586.11;34516.156;   -6.474;    0.000;34522.63032
 586.27;40625.220; -157.074;    0.000;40782.29332
 586.43;47435.483;  586.527;    0.000;46848.95632
 586.58;49758.346;  304.527;    0.000;49453.81932
 586.74;59749.010;   48.327;    0.000;59700.68231
 586.89;61898.673;  301.728;    0.000;61596.94531
 587.05;62110.537;  865.128;    0.000;61245.40831
 587.21;61898.800;  868.729;    0.000;61030.07131
 587.36;62110.663;  607.529;    0.000;61503.13430
 587.52;61898.927;  179.129;    0.000;61719.79730
 587.67;62110.790;  740.530;    0.000;61370.26030
 587.83;61899.053;  370.330;    0.000;61528.72330
 587.99;62110.917;  145.730;    0.000;61965.18630
 588.14;61899.180; -307.669;    0.000;62206.84929
 588.30;62111.044;  733.931;    0.000;61377.11229
 588.45;61899.307;  813.732;    0.000;61085.57529
 588.61;62111.170;  -77.268;    0.000;62188.43829
 588.77;61899.434;  266.732;    0.000;61632.70129
 588.92;62111.297;  423.133;    0.000;61688.16429
 589.08;61899.560;  265.133;    0.000;61634.42728
 589.23;62111.424;  253.734;    0.000;61857.69028
 589.39;61899.687;  226.334;    0.000;61673.35328
 589.54;62111.551;  480.934;    0.000;61630.61628
 589.70;61899.814;  221.335;    0.000;61678.47928
 589.86;62111.677;  363.735;    0.000;61747.94228
 590.01;61899.941;  145.935;    0.000;61754.00527
 590.17;62111.804;  523.136;    0.000;61588.66827
 590.32;61900.067;  224.136;    0.000;61675.93127
 590.48;62111.931;  206.737;    0.000;61905.19427
 590.63;61900.194; -181.063;    0.000;62081.25727
 590.79;62112.058;  335.937;    0.000;61776.12027
 590.95;61900.321;  463.738;    0.000;61436.58326
 591.10;62112.184;  448.738;    0.000;61663.44626
 591.26;61900.448;   23.339;    0.000;61877.10926
 591.41;62112.311;  490.739;    0.000;61621.57226
 591.57;61900.575;  278.339;    0.000;61622.23526
 591.72;62112.438;  -86.260;    0.000;62198.69825
 591.88;61900.701;   39.340;    0.000;61861.36125
 592.04;62112.565;  642.140;    0.000;61470.42425
 592.19;61900.828;  298.941;    0.000;61601.88725
 592.35;62112.691;  144.741;    0.000;61967.95025
 592.50;61900.955;  114.142;    0.000;61786.81325
 592.66;62112.818;  538.342;    0.000;61574.47624
 592.81;61901.082;  270.142;    0.000;61630.93924
 592.97;62112.945;  349.543;    0.000;61763.40224
 593.13;61901.208;  -30.257;    0.000;61931.46524
 593.28;62113.072;  534.343;    0.000;61578.72824
 593.44;61901.335;  355.544;    0.000;61545.79124
 593.59;62113.198;  515.144;    0.000;61598.05423
 593.75;61901.462; -275.855;    0.000;62177.31723
 593.90;62113.325;  236.545;    0.000;61876.78023
 594.06;61901.589;  790.745;    0.000;61110.84323
 594.21;62113.452;  153.546;    0.000;61959.90623
 594.37;61901.715; -324.054;    0.000;62225.76923
 594.53;62113.579; 1299.947;    0.000;60813.63222
 594.68;61901.842;  299.147;    0.000;61602.69522
 594.84;62113.706;  -54.453;    0.000;62168.15822
 594.99;61901.969; -257.052;    0.000;62159.02122
 595.15;62113.832;  367.748;    0.000;61746.08422
 595.30;61902.096;  -53.252;    0.000;61955.34721
 595.46;62113.959;  -54.051;    0.000;62168.01021
 595.61;61902.222; -342.651;    0.000;62244.87320
 595.77;62114.086;  317.950;    0.000;61796.13620
 595.92;61902.349;  310.950;    0.000;61591.39920
 596.08;62114.213;   84.750;    0.000;62029.46220
 596.24;61902.476; -373.249;    0.000;62275.72520
 596.39;62114.339;  728.351;    0.000;61385.98820
 596.55;61902.603;   -3.248;    0.000;61905.85119
 596.70;62114.466;  449.152;    0.000;61665.31419
 596.86;61902.729; -200.248;    0.000;62102.97719
 597.01;62114.593;  118.353;    0.000;61996.24019
 597.17;61902.856;   25.153;    0.000;61877.70319
 597.32;62114.720;  113.953;    0.000;62000.76619
 597.48;61902.983; -197.446;    0.000;62100.42918
 597.63;62114.846;  621.954;    0.000;61492.89218
 597.79;61903.110;  334.355;    0.000;61568.75518
 597.94;62114.973;  398.955;    0.000;61716.01818
 598.10;61903.237;   12.155;    0.000;61891.08118
 598.26;62115.100;  210.556;    0.000;61904.54418
 598.41;61903.363;  -97.644;    0.000;62001.00717
 598.57;62115.227;  326.356;    0.000;61788.87017
 598.72;61903.490; -138.643;    0.000;62042.13317
 598.88;62115.353;  420.757;    0.000;61694.59617
 599.03;61903.617;  -19.442;    0.000;61923.05917
 599.19;62115.480;   98.158;    0.000;62017.32216
 599.34;61903.744; -222.442;    0.000;62126.18516
 599.50;62115.607;  882.359;    0.000;61233.24816
 599.65;61903.870;  114.959;    0.000;61788.91116
 599.81;62115.734;  101.960;    0.000;62013.77416
 599.96;61903.997; -101.440;    0.000;62005.43716
 600.12;62115.860;  647.360;    0.000;61468.50015
 600.27;61904.124;  149.161;    0.000;61754.96315
 600.43;62115.987;  128.161;    0.000;61987.82615
 600.58;61904.251; -135.039;    0.000;62039.28915
 600.74;62116.114;  649.162;    0.000;61466.95215
 600.90;61904.377;  -57.638;    0.000;61962.01515
 601.05;62116.241; -269.437;    0.000;62385.67814
 601.21;61904.504; -359.837;    0.000;62264.34114
 601.36;62116.368;  210.963;    0.000;61905.40414
 601.52;61904.631;  -32.836;    0.000;61937.46714
 601.67;62116.494; -204.436;    0.000;62320.93014
 601.83;61904.758; -208.035;    0.000;62112.79314
 601.98;62116.621;  447.165;    0.000;61669.45613
 602.14;61904.884;  312.165;    0.000;61592.71913
 602.29;62116.748;   84.966;    0.000;62031.78213
 602.45;61905.011;   81.566;    0.000;61823.44513
 602.60;62116.875;  621.366;    0.000;61495.50813
 602.76;61905.138;  -20.233;    0.000;61925.37112
 602.91;62117.001;  -84.033;    0.000;62201.03412
 603.07;61905.265; -293.032;    0.000;62198.29712
 603.22;62117.128;  408.568;    0.000;61708.56012
 603.38;61905.391; -140.032;    0.000;62045.42312
 603.53;62117.255;  241.769;    0.000;61875.48612
 603.69;61905.518;  -80.631;    0.000;61986.14911
 603.84;62117.382;   93.369;    0.000;62024.01211
 604.00;61905.645; -108.230;    0.000;62013.87511
 604.15;62117.508;  -42.230;    0.000;62159.73811
 604.31;61905.772; -370.429;    0.000;62276.20111
 604.46;62117.635;  320.171;    0.000;61797.46410
 604.62;61905.898;  107.571;    0.000;61798.32710
 604.77;62117.762; -181.228;    0.000;62298.99010
 604.93;61906.025;  -93.228;    0.000;61999.25309
 605.08;13535.689;  191.973;    0.000;13343.71609
 605.24;50489.552;  355.973;    0.000;50133.57909
 605.39; 6190.815;  128.573;    0.000;6062.24209
 605.55; 5959.279; -142.026;    0.000;6101.30509
 605.70; 6661.142;  415.174;    0.000;6245.96809
 605.86; 7556.806;  176.174;    0.000;7380.63108
 606.01; 5349.869; -131.425;    0.000;5481.29408
 606.17; 4598.332; -153.825;    0.000;4752.15708
 606.32; 4077.996;  -26.224;    0.000;4104.22008
 606.48; 4090.059;  244.576;    0.000;3845.48308
 606.63; 3472.722;  -17.024;    0.000;3489.74607
 606.79; 3502.786;  -19.823;    0.000;3522.60907
 606.94; 3701.849;  557.777;    0.000;3144.07207
 607.10; 3153.113;  -15.022;    0.000;3168.13507
 607.25; 2802.776; -150.422;    0.000;2953.19807
 607.41; 2641.439; -151.022;    0.000;2792.46107
 607.56; 3214.903;  483.779;    0.000;2731.12406
 607.72; 2937.966;  189.979;    0.000;2747.98706
 607.87; 2946.629;  319.379;    0.000;2627.25006
 608.03; 2517.693;  -88.820;    0.000;2606.51306
 608.18; 2970.956;  485.780;    0.000;2485.17606
 608.33; 3075.220;  575.981;    0.000;2499.23906
 608.49; 2741.883;  284.981;    0.000;2456.90205
 608.64; 2365.746; -119.819;    0.000;2485.56505
 608.80; 2831.610;  423.182;    0.000;2408.42805
 608.95; 2648.673;   30.182;    0.000;2618.49105
 609.11; 2440.537;  110.182;    0.000;2330.35405
 609.26; 2317.600;  109.783;    0.000;2207.81704
 609.42; 2601.663;  425.583;    0.000;2176.08004
 609.57; 2375.327;   82.784;    0.000;2292.54304
 609.73; 3032.390;  492.584;    0.000;2539.80604
 609.88; 2494.053;   99.784;    0.000;2394.26904
 610.04; 3046.117; 1049.385;    0.000;1996.73204
 610.19; 3127.980; 1075.785;    0.000;2052.19503
 610.35; 3023.244;  740.986;    0.000;2282.25803
 610.50; 3382.907; 1036.186;    0.000;2346.72103
 610.66; 3139.170; 1822.386;    0.000;1316.78403
 610.81; 2794.234; 1973.387;    0.000;820.84703
 610.97; 2767.097; 2852.187;    0.000;-85.08997
 611.12; 2592.760; 3280.587;    0.000;-687.82698
 611.27; 3396.224; 4223.788;    0.000;-827.56398
 611.43; 2942.887; 3424.388;    0.000;-481.50098
 611.58; 3289.751; 3249.189;    0.000;40.56202
 611.74; 2379.614; 1885.989;    0.000;493.62502
 611.89; 2828.677; 2024.389;    0.000;804.28802
 612.05; 2389.541; 1457.390;    0.000;932.15101
 612.20; 2159.004; 1059.790;    0.000;1099.21401
 612.36; 2358.468; 1142.191;    0.000;1216.27701
 612.51; 2726.331; 1398.191;    0.000;1328.14001
 612.67; 2335.394;  786.791;    0.000;1548.60301
 612.82; 2277.458;  892.792;    0.000;1384.66600
 612.98; 1867.521;  563.992;    0.000;1303.52900
 613.13; 2120.184;  831.792;    0.000;1288.39200
 613.28; 2001.648;  761.593;    0.000;1240.05499
 613.44; 2067.511;  889.993;    0.000;1177.51799
 613.59; 2621.775; 1418.194;    0.000;1203.58099
 613.75; 2420.438; 1150.194;    0.000;1270.24399
 613.90; 2477.101; 1228.994;    0.000;1248.10699
 614.06; 1865.765;  477.595;    0.000;1388.16999
 614.21; 2327.028;  890.995;    0.000;1436.03298
 614.37; 2848.091;  851.395;    0.000;1996.69598
 614.52; 2999.755;  871.596;    0.000;2128.15898
 614.67; 2556.018;  773.396;    0.000;1782.62198
 614.83; 2039.282;  266.797;    0.000;1772.48498
 614.98; 3067.145;  695.597;    0.000;2371.54797
 615.14; 8519.408;  513.997;    0.000;8005.41097
 615.29;26579.672;  334.998;    0.000;26244.67397
 615.45;19597.135;  353.998;    0.000;19243.13697
 615.60; 9347.799;  801.999;    0.000;8545.79997
 615.76;11432.062;  275.999;    0.000;11156.06297
 615.91;44406.125;  140.599;    0.000;44265.52596
 616.06;43471.589;   14.400;    0.000;43457.18896
 616.22;16492.052;  748.800;    0.000;15743.25196
 616.37; 6525.315;  325.600;    0.000;6199.71496
 616.53; 3878.779;  804.001;    0.000;3074.77796
 616.68; 2648.042;  428.601;    0.000;2219.44095
 616.84; 3018.506;  620.602;    0.000;2397.90395
 616.99; 3108.369;  734.202;    0.000;2374.16695
 617.14; 2599.032;  -10.798;    0.000;2609.82995
 617.30; 2186.496; -128.397;    0.000;2314.89295
 617.45; 2017.959;  324.003;    0.000;1693.95595
 617.61; 1961.222;  567.804;    0.000;1393.41894
 617.76; 1675.086;  273.004;    0.000;1402.08194
 617.92; 1254.349; -132.196;    0.000;1386.54494
 618.07; 1737.613;  371.405;    0.000;1366.20794
 618.22; 1633.276;  238.805;    0.000;1394.47094
 618.38; 1356.139;   -0.595;    0.000;1356.73394
 618.53; 1138.803; -215.994;    0.000;1354.79693
 618.69; 1362.866;   50.806;    0.000;1312.05993
 618.84; 1495.130;  209.407;    0.000;1285.72293
 619.00; 1511.793;  301.007;    0.000;1210.78593
 619.15; 1202.456;  -24.393;    0.000;1226.84893
 619.30; 1843.720;  664.408;    0.000;1179.31193
 619.46; 1071.183; -133.792;    0.000;1204.97492
 619.61; 1326.846;  144.608;    0.000;1182.23792
 619.77; 1372.310;  212.809;    0.000;1159.50092
 619.92; 1484.573;  313.809;    0.000;1170.76392
 620.08; 1289.237;  190.410;    0.000;1098.82692
 620.23; 1245.100;  132.010;    0.000;1113.08991
 620.38; 1418.963;  304.010;    0.000;1114.95291
 620.54; 1489.827;  310.811;    0.000;1179.01591
 620.69; 1373.890;  161.211;    0.000;1212.67891
 620.85; 1265.753;  184.412;    0.000;1081.34191
 621.00; 1637.017;  186.412;    0.000;1450.60491
 621.15; 2566.880;  450.412;    0.000;2116.46790
 621.31; 2508.144;  762.013;    0.000;1746.13090
 621.46; 1888.007;  187.813;    0.000;1700.19390
 621.62; 1443.270;  -32.787;    0.000;1476.05690
 621.77; 1440.734;  217.414;    0.000;1223.31990
 621.92; 1437.997;  350.014;    0.000;1087.98290
 622.08; 1119.460;   67.015;    0.000;1052.44589
 622.23;  920.324; -108.985;    0.000;1029.30889
 622.39; 1472.587;  457.615;    0.000;1014.97189
 622.54; 1775.451;  649.016;    0.000;1126.43489
 622.70; 1609.514;  558.016;    0.000;1051.49788
 622.85; 1274.977;  218.217;    0.000;1056.76088
 623.00; 1195.441;  118.017;    0.000;1077.42388
 623.16; 1229.904;  224.217;    0.000;1005.68688
 623.31; 1121.368;  137.018;    0.000;984.34988
 623.46; 1089.431;   74.018;    0.000;1015.41287
 623.62; 1217.294;  255.018;    0.000;962.27587
 623.77; 1091.558;  108.019;    0.000;983.53887
 623.93; 1084.021;  133.019;    0.000;951.00187
 624.08; 1244.484;  203.820;    0.000;1040.66487
 624.23; 1154.348;  143.420;    0.000;1010.92787
 624.39; 1312.211;  275.820;    0.000;1036.39086
 624.54; 1270.275;  307.421;    0.000;962.85386
 624.70; 1347.138;  205.421;    0.000;1141.71686
 624.85; 1960.001;  902.421;    0.000;1057.57986
 625.00; 1041.665;   82.222;    0.000;959.44286
 625.16; 1164.128;  172.022;    0.000;992.10586
 625.31; 1085.791;  139.223;    0.000;946.56885
 625.47; 1527.055;  558.823;    0.000;968.23185
 625.62;  991.518;   37.023;    0.000;954.49485
 625.77;  938.382;   -6.576;    0.000;944.95785
 625.93; 1392.045;  397.024;    0.000;995.02085
 626.08; 1481.108;  463.225;    0.000;1017.88385
 626.24; 1040.572;  135.625;    0.000;904.94684
 626.39;  943.635;   61.625;    0.000;882.00984
 626.54;  970.699;   44.826;    0.000;925.87284
 626.70; 1437.762;  509.426;    0.000;928.33584
 626.85;  723.625; -211.374;    0.000;934.99884
 627.00;  841.689;  -42.573;    0.000;884.26183
 627.16; 1013.152;   96.027;    0.000;917.12483
 627.31;  886.215;   42.028;    0.000;844.18783
 627.47; 1353.079;  450.628;    0.000;902.45083
 627.62;  989.742;   98.828;    0.000;890.91383
 627.77;  833.806;  -43.371;    0.000;877.17683
 627.93; 1294.469;  381.829;    0.000;912.63982
 628.08;  870.132;   -2.570;    0.000;872.70282
 628.23;  756.996; -100.770;    0.000;857.76582
 628.39;  631.659; -214.170;    0.000;845.82882
 628.54; 1783.922;  888.031;    0.000;895.89182
 628.70;  992.186;  169.831;    0.000;822.35481
 628.85; 1104.049;  243.631;    0.000;860.41781
 629.00;  755.113; -139.168;    0.000;894.28081
 629.16; 1150.976;  286.032;    0.000;864.94381
 629.31; 1496.039;  593.233;    0.000;902.80681
 629.46; 1763.703;  534.833;    0.000;1228.86981
 629.62; 1704.166;  199.233;    0.000;1504.93280
 629.77; 1725.030;  606.834;    0.000;1118.19580
 629.92;  870.893;  -64.966;    0.000;935.85880
 630.08;  866.356;    2.434;    0.000;863.92180
 630.23;  978.220;  142.835;    0.000;835.38480
 630.39; 1381.083;  534.035;    0.000;847.04779
 630.54; 1300.146;   -7.164;    0.000;1307.31079
 630.69; 2690.810;  890.036;    0.000;1800.77379
 630.85; 1670.673;  418.236;    0.000;1252.43679
 631.00; 1424.137;  617.837;    0.000;806.29979
 631.15; 1274.600;  612.037;    0.000;662.56278
 631.31;  908.263;  303.038;    0.000;605.22578
 631.46; 1021.127;  311.238;    0.000;709.88878
 631.61; 1435.390;  745.638;    0.000;689.75178
 631.77; 1028.453;  201.439;    0.000;827.01478
 631.92; 1170.517;  397.639;    0.000;772.87778
 632.07; 1208.980;  474.839;    0.000;734.14077
 632.23;  763.644;  -84.760;    0.000;848.40377
 632.38;  715.107; -134.960;    0.000;850.06677
 632.54;  740.970;  -68.359;    0.000;809.32977
 632.69;  797.234;  -35.759;    0.000;832.99277
 632.84; 1125.297;  284.641;    0.000;840.65577
 633.00; 1138.960;  278.642;    0.000;860.31876
 633.15;  932.224;  284.642;    0.000;647.58176
 633.30;  479.487; -309.557;    0.000;789.04476
 633.46;  853.551;   53.043;    0.000;800.50776
 633.61; 1060.814;  221.443;    0.000;839.37075
 633.76;  891.277;   48.044;    0.000;843.23375
 633.92;  705.941; -147.356;    0.000;853.29675
 634.07; 1068.204;  295.044;    0.000;773.15975
 634.22;  716.668; -105.155;    0.000;821.82275
 634.38;  664.531; -119.955;    0.000;784.48574
 634.53;  786.594;  -10.954;    0.000;797.54874
 634.68; 1623.458;  767.046;    0.000;856.41174
 634.84;  925.921;   82.846;    0.000;843.07474
 634.99; 1087.984;  288.247;    0.000;799.73774
 635.14;  601.248; -158.553;    0.000;759.80074
 635.30;  804.711;   38.247;    0.000;766.46373
 635.45;  751.975;  -26.952;    0.000;778.92673
 635.60;  861.838;   60.448;    0.000;801.38973
 635.76;  419.101; -347.951;    0.000;767.05273
 635.91;  742.765;  -16.551;    0.000;759.31573
 636.06;  812.628;   36.849;    0.000;775.77873
 636.22; 1436.691;  599.850;    0.000;836.84172
 636.37;  982.755;   10.450;    0.000;972.30472
 636.52;  867.618;  -38.149;    0.000;905.76772
 636.68; 1099.082;  175.251;    0.000;923.83072
 636.83; 1260.145;   17.851;    0.000;1242.29372
 636.98; 1213.608;  146.252;    0.000;1067.35671
 637.14; 1265.472;  404.252;    0.000;861.21971
 637.29;  704.735;  -60.548;    0.000;765.28271
 637.44;  653.999;  -59.347;    0.000;713.34571
 637.60;  622.262;  -80.947;    0.000;703.20871
 637.75; 1040.125;  222.454;    0.000;817.67170
 637.90;  653.789; -113.746;    0.000;767.53470
 638.05; 1120.852;  299.654;    0.000;821.19770
 638.21;  964.115; -250.945;    0.000;1215.06070
 638.36; 2137.979;   67.455;    0.000;2070.52370
 638.51; 1618.642;   96.655;    0.000;1521.98669
 638.67; 1118.706;  131.256;    0.000;987.44969
 638.82; 1087.769;  239.056;    0.000;848.71269
 638.97;  665.032;  -47.143;    0.000;712.17569
 639.13;  736.696;  -36.343;    0.000;773.03869
 639.28;  858.959;  160.657;    0.000;698.30169
 639.43;  395.222; -282.942;    0.000;678.16468
 639.59; 1218.286;  479.258;    0.000;739.02768
 639.74;  518.949; -187.541;    0.000;706.49068
 639.89;  909.413;  246.459;    0.000;662.95368
 640.05;  735.076;   26.859;    0.000;708.21668
 640.20;  557.939; -135.140;    0.000;693.07968
 640.35;  777.203;   22.260;    0.000;754.94267
 640.50;  793.466;   53.660;    0.000;739.80567
 640.66;  708.330;  -37.739;    0.000;746.06867
 640.81;  829.193;  125.861;    0.000;703.33167
 640.96;  911.056;  138.262;    0.000;772.79467
 641.12;  938.320;  139.262;    0.000;799.05766
 641.27; 1596.183;  247.462;    0.000;1348.72066
 641.42; 5223.646;  185.263;    0.000;5038.38366
 641.58; 6997.710;   40.063;    0.000;6957.64666
 641.73; 3554.573;  248.264;    0.000;3306.30966
 641.88; 1222.837; -352.336;    0.000;1575.17265
 642.03; 1153.900;  143.664;    0.000;1010.23565
 642.19;  622.963; -184.535;    0.000;807.49865
 642.34; 1251.027;  492.465;    0.000;758.56165
 642.49;  446.890; -258.935;    0.000;705.82465
 642.65;  873.953;   96.666;    0.000;777.28765
 642.80;  480.817; -215.934;    0.000;696.75064
 642.95; 1018.080;  230.667;    0.000;787.41364
 643.10;  970.344;  212.867;    0.000;757.47664
 643.26;  801.207;   80.867;    0.000;720.33964
 643.41;  628.870;  -41.732;    0.000;670.60264
 643.56;  843.734;  173.868;    0.000;669.86563
 643.72;  366.397; -307.132;    0.000;673.52863
 643.87; 1903.661; 1160.669;    0.000;742.99163
 644.02;  615.924;  -36.731;    0.000;652.65463
 644.17;  643.787;   22.270;    0.000;621.51763
 644.33;  882.451;  238.470;    0.000;643.98062
 644.48;  743.514;   66.470;    0.000;677.04362
 644.63;  654.777;   62.671;    0.000;592.10662
 644.79;  590.241;  -59.929;    0.000;650.16962
 644.94;  758.104;  130.672;    0.000;627.43262
 645.09;  691.768;   91.872;    0.000;599.89562
 645.24;  239.631; -418.528;    0.000;658.15861
 645.40;  717.294;  106.273;    0.000;611.02161
 645.55;  581.758;  -86.127;    0.000;667.88461
 645.70;  573.821;  -35.727;    0.000;609.54761
 645.86;  806.884;  190.074;    0.000;616.81061
 646.01;  672.348;   44.674;    0.000;627.67361
 646.16;  973.811;  291.075;    0.000;682.73660
 646.31;  659.475;  -20.525;    0.000;679.99960
 646.47;  772.938;   17.275;    0.000;755.66260
 646.62;  931.201;  159.876;    0.000;771.32560
 646.77;  541.865; -142.124;    0.000;683.98860
 646.92;  735.528;  104.477;    0.000;631.05159
 647.08;  775.991;  153.877;    0.000;622.11459
 647.23; 1004.655;  312.277;    0.000;692.37759
 647.38;  567.918;  -34.722;    0.000;602.64059
 647.53;  588.982;   24.878;    0.000;564.10359
 647.69;  873.445;  175.278;    0.000;698.16659
 647.84;  508.508;  -56.521;    0.000;565.02958
 647.99;  545.372;  -90.921;    0.000;636.29258
 648.15;  787.635;  151.880;    0.000;635.75558
 648.30;  421.899; -195.520;    0.000;617.41858
 648.45;  920.562;  280.680;    0.000;639.88158
 648.60;  664.025;   -7.519;    0.000;671.54457
 648.76;  695.689;  116.281;    0.000;579.40757
 648.91;  343.952; -232.119;    0.000;576.07057
 649.06;  787.615;  115.482;    0.000;672.13357
 649.21;  943.279;  264.082;    0.000;679.19657
 649.37;  680.942;   19.883;    0.000;661.05956
 649.52;  512.606; -110.917;    0.000;623.52256
 649.67;  867.069;  240.083;    0.000;626.98556
 649.82;  784.532;  150.884;    0.000;633.64856
 649.98;  675.996;  143.084;    0.000;532.91156
 650.13;  492.859;  -28.915;    0.000;521.77456
 650.28;  588.522;   59.485;    0.000;529.03755
 650.43;  578.186;   19.885;    0.000;558.30055
 650.59;  693.649;  183.886;    0.000;509.76355
 650.74;  399.113; -124.114;    0.000;523.22655
 650.89; 1053.176;  504.886;    0.000;548.28955
 651.04;  463.639; -111.113;    0.000;574.75255
 651.20;  516.103;  -75.513;    0.000;591.61554
 651.35;  569.766;  -18.312;    0.000;588.07854
 651.50;  643.430;   60.488;    0.000;582.94154
 651.65;  326.493; -253.512;    0.000;580.00454
 651.81; 1153.756;  602.289;    0.000;551.46754
 651.96;  579.220;    6.889;    0.000;572.33053
 652.11;  663.283;   55.290;    0.000;607.99353
 652.26;  584.346;  -50.510;    0.000;634.85653
 652.41; 1069.210;  494.490;    0.000;574.71953
 652.57;  945.873;  294.491;    0.000;651.38253
 652.72; 1033.537;  454.691;    0.000;578.84552
 652.87;  490.200;  -73.309;    0.000;563.50852
 653.02;  936.863;  405.492;    0.000;531.37152
 653.18;  479.327;  -77.908;    0.000;557.23452
 653.33;  757.390;  175.093;    0.000;582.29752
 653.48;  465.653; -151.107;    0.000;616.76052
 653.63; 1242.117;  230.893;    0.000;1011.22351
 653.79;  824.580; -214.106;    0.000;1038.68651
 653.94;  913.044;  180.694;    0.000;732.34951
 654.09;  653.907;   30.694;    0.000;623.21251
 654.24;  484.570; -112.705;    0.000;597.27551
 654.39;  583.834;    9.295;    0.000;574.53850
 654.55;  723.897;  168.496;    0.000;555.40150
 654.70;  376.961; -195.304;    0.000;572.26450
 654.85;  748.024;  239.496;    0.000;508.52750
 655.00;  199.687; -279.703;    0.000;479.39050
 655.16;  700.751;  136.097;    0.000;564.65349
 655.31;  655.614;   55.498;    0.000;600.11649
 655.46;  468.877;  -60.502;    0.000;529.37949
 655.61;  548.941;  -83.702;    0.000;632.64249
 655.76;  600.604;   32.299;    0.000;568.30549
 655.92;  728.268; -138.101;    0.000;866.36849
 656.07; 2406.731;   62.699;    0.000;2344.03148
 656.22; 3453.594;  250.500;    0.000;3203.09448
 656.37; 1861.458;  108.900;    0.000;1752.55748
 656.53;  632.921; -349.899;    0.000;982.82048
 656.68; 1133.784;  409.101;    0.000;724.68348
 656.83;  380.448; -193.099;    0.000;573.54648
 656.98;  760.711;  183.502;    0.000;577.20947
 657.13;  792.175;  162.302;    0.000;629.87247
 657.29;  461.438;  -99.497;    0.000;560.93547
 657.44;  526.501;  -67.897;    0.000;594.39847
 657.59;  696.565;  163.303;    0.000;533.26147
 657.74;  896.028;  316.104;    0.000;579.92446
 657.89;  541.892;   23.304;    0.000;518.58746
 658.05;  433.755;  -78.696;    0.000;512.45046
 658.20;  466.218;  -54.295;    0.000;520.51346
 658.35; 1087.282;  501.305;    0.000;585.97646
 658.50;  642.745;   78.506;    0.000;564.23945
 658.65;  692.408;  134.706;    0.000;557.70245
 658.81;  541.072;   39.106;    0.000;501.96545
 658.96;  849.535;  267.307;    0.000;582.22845
 659.11;  641.399;   72.707;    0.000;568.69145
 659.26;  501.662;  -87.293;    0.000;588.95444
 659.41;  811.125;  190.308;    0.000;620.81744
 659.57;  380.989; -244.692;    0.000;625.68044
 659.72;  544.652;  -79.091;    0.000;623.74344
 659.87;  301.915; -252.691;    0.000;554.60644
 660.02;  533.379;  -42.691;    0.000;576.06944
 660.17;  937.242;   47.910;    0.000;889.33243
 660.33; 1945.906;  105.710;    0.000;1840.19543
 660.48; 1712.769; -154.089;    0.000;1866.85843
 660.63; 1394.432;  377.911;    0.000;1016.52143
 660.78;  908.696;  222.911;    0.000;685.78443
 660.93;  690.759;   83.312;    0.000;607.44743
 661.09;  454.422; -110.088;    0.000;564.51042
 661.24;  867.086;  335.512;    0.000;531.57342
 661.39;  538.349;   54.313;    0.000;484.03642
 661.54;  470.813;   15.913;    0.000;454.89942
 661.69;  371.476; -103.286;    0.000;474.76242
 661.84;  862.139;  348.714;    0.000;513.42541
 662.00;  578.403;   72.914;    0.000;505.48841
 662.15;  395.066;  -70.285;    0.000;465.35141
 662.30;  217.530; -214.885;    0.000;432.41441
 662.45;  448.793;    7.516;    0.000;441.27741
 662.60;  218.656; -320.484;    0.000;539.14041
 662.76;  419.120;  -52.684;    0.000;471.80340
 662.91;  909.783;  379.317;    0.000;530.46640
 663.06;  519.046;   26.517;    0.000;492.52940
 663.21;  896.310;  384.117;    0.000;512.19240
 663.36;  413.773;  -86.482;    0.000;500.25540
 663.51;  522.637;   47.318;    0.000;475.31839
 663.67;  359.100; -166.881;    0.000;525.98139
 663.82;  709.963;  196.519;    0.000;513.44439
 663.97; 1082.027;  585.519;    0.000;496.50739
 664.12;  412.690;  -89.280;    0.000;501.97039
 664.27;  652.153;  172.120;    0.000;480.03339
 664.42;  455.617;  -62.480;    0.000;518.09638
 664.58;  855.480;  318.521;    0.000;536.95938
 664.73;  215.744; -281.479;    0.000;497.22238
 664.88;  400.807;  -56.078;    0.000;456.88538
 665.03;  627.470;   66.322;    0.000;561.14837
 665.18;  533.134;  102.722;    0.000;430.41137
 665.33;  515.197;   -0.277;    0.000;515.47437
 665.49;  507.461;   -9.877;    0.000;517.33737
 665.64;  560.724;    9.524;    0.000;551.20037
 665.79; 1066.787;  438.924;    0.000;627.86337
 665.94;  787.851; -163.876;    0.000;951.72636
 666.09; 1102.114;  258.525;    0.000;843.58936
 666.24; 1031.377;    6.125;    0.000;1025.25236
 666.40;  647.441; -207.475;    0.000;854.91536
 666.55;  412.104; -224.874;    0.000;636.97836
 666.70;  996.768;  420.526;    0.000;576.24136
 666.85;  289.431; -212.073;    0.000;501.50435
 667.00;  356.894; -138.273;    0.000;495.16735
 667.15;  529.358;  -97.073;    0.000;626.43035
 667.30; 1024.421;  174.128;    0.000;850.29335
 667.46; 2238.884; -581.672;    0.000;2820.55635
 667.61; 6766.948;  125.929;    0.000;6641.01934
 667.76; 3898.611; -289.271;    0.000;4187.88234
 667.91; 2056.475;  250.129;    0.000;1806.34534
 668.06; 1066.338;  151.530;    0.000;914.80834
 668.21;  951.801;  269.130;    0.000;682.67134
 668.36;  890.465;  214.930;    0.000;675.53433
 668.52;  565.328;    4.531;    0.000;560.79733
 668.67;  648.192;   84.931;    0.000;563.26033
 668.82;  590.055;   34.532;    0.000;555.52333
 668.97;  457.118;  -64.068;    0.000;521.18633
 669.12;  716.182;  179.932;    0.000;536.24933
 669.27;  949.245;  357.533;    0.000;591.71232
 669.42;  324.508; -170.267;    0.000;494.77532
 669.58;  401.972; -125.267;    0.000;527.23832
 669.73;  731.235;    0.734;    0.000;730.50132
 669.88;  687.499;  -28.666;    0.000;716.16432
 670.03;  753.162;  173.935;    0.000;579.22731
 670.18;  466.425;  -50.265;    0.000;516.69031
 670.33;  519.889;   66.935;    0.000;452.95331
 670.48;  392.352; -105.264;    0.000;497.61631
 670.64;  498.615;  -25.064;    0.000;523.67931
 670.79;  253.079; -237.863;    0.000;490.94231
 670.94;  540.942;   97.737;    0.000;443.20530
 671.09;  437.006;  -13.063;    0.000;450.06830
 671.24;  593.469;  108.538;    0.000;484.93130
 671.39;  131.132; -316.462;    0.000;447.59430
 671.54;  652.796;  165.538;    0.000;487.25730
 671.69;  415.459; -233.661;    0.000;649.12029
 671.85;  848.323;  133.739;    0.000;714.58329
 672.00;  213.986; -293.060;    0.000;507.04629
 672.15;  960.649;  406.740;    0.000;553.90929
 672.30;  437.913;  -21.460;    0.000;459.37229
 672.45;  593.176;  193.741;    0.000;399.43529
 672.60;  679.839;  172.941;    0.000;506.89828
 672.75;  678.703;  266.942;    0.000;411.76128
 672.90;  850.966;  395.142;    0.000;455.82428
 673.06;  629.430;  238.342;    0.000;391.08728
 673.21;  757.093;  307.543;    0.000;449.55028
 673.36;  635.156;  169.143;    0.000;466.01327
 673.51;  503.820;  -15.857;    0.000;519.67627
 673.66;  585.283;  126.744;    0.000;458.53927
 673.81;  274.746; -154.056;    0.000;428.80227
 673.96;  757.210;  291.545;    0.000;465.66527
 674.11;  366.073; -107.255;    0.000;473.32827
 674.26;  892.137;  382.945;    0.000;509.19126
 674.42;  382.600; -140.454;    0.000;523.05426
 674.57; 1135.263;  563.146;    0.000;572.11726
 674.72;  154.927; -462.254;    0.000;617.18026
 674.87; 1421.990;  251.747;    0.000;1170.24326
 675.02; 5132.053;   58.947;    0.000;5073.10625
 675.17;11823.117;  494.148;    0.000;11328.96925
 675.32; 6762.980;   24.548;    0.000;6738.43225
 675.47; 3034.844;   37.948;    0.000;2996.89525
 675.62; 1308.707; -220.451;    0.000;1529.15825
 675.77;  795.770;  -35.251;    0.000;831.02124
 675.93;  433.634; -193.850;    0.000;627.48424
 676.08;  682.297;   79.150;    0.000;603.14724
 676.23;  412.361; -138.250;    0.000;550.61024
 676.38; 1060.824;  361.351;    0.000;699.47324
 676.53;  676.287; -313.449;    0.000;989.73624
 676.68;  856.351;   45.551;    0.000;810.79923
 676.83;  336.014; -267.848;    0.000;603.86223
 676.98;  560.477;   45.552;    0.000;514.92523
 677.13;  348.541;  -76.847;    0.000;425.38823
 677.28;  869.404;  405.753;    0.000;463.65123
 677.44;  386.668;  -84.047;    0.000;470.71422
 677.59;  589.931;  126.954;    0.000;462.97722
 677.74;  602.594;  174.754;    0.000;427.84022
 677.89;  545.058;   69.555;    0.000;475.50322
 678.04;  177.721; -287.245;    0.000;464.96622
 678.19;  451.384;    2.555;    0.000;448.82922
 678.34;  319.448; -121.444;    0.000;440.89221
 678.49;  502.711;   83.556;    0.000;419.15521
 678.64;  358.575;  -78.844;    0.000;437.41821
 678.79;  589.038;  160.557;    0.000;428.48121
 678.94;  527.301;   41.757;    0.000;485.54421
 679.09;  469.965;    3.358;    0.000;466.60720
 679.25;  293.428; -134.242;    0.000;427.67020
 679.40;  486.492;   47.958;    0.000;438.53320
 679.55;  278.955; -182.241;    0.000;461.19620
 679.70;  552.618;  184.759;    0.000;367.85920
 679.85;  461.282;    4.159;    0.000;457.12220
 680.00;  653.945;  261.760;    0.000;392.18519
 680.15;  191.408; -266.040;    0.000;457.44819
 680.30;  827.872;  364.161;    0.000;463.71119
 680.45;  274.135; -208.039;    0.000;482.17419
 680.60;  549.599;   81.161;    0.000;468.43719
 680.75;  774.262;  222.362;    0.000;551.90018
 680.90;  642.125;  208.562;    0.000;433.56318
 681.05;  448.189;  -21.037;    0.000;469.22618
 681.21;  909.652;  423.163;    0.000;486.48918
 681.36;  259.715; -166.237;    0.000;425.95218
 681.51;  480.179;   20.564;    0.000;459.61517
 681.66;  433.242;  -62.236;    0.000;495.47817
 681.81;  618.906;   68.364;    0.000;550.54117
 681.96;  390.569;  -16.235;    0.000;406.80417
 682.11;  582.032;  108.765;    0.000;473.26717
 682.26;  310.496; -107.034;    0.000;417.53017
 682.41;  812.359;  310.566;    0.000;501.79316
 682.56;  670.823;   10.766;    0.000;660.05616
 682.71;  809.086;  212.167;    0.000;596.91916
 682.86;  353.149; -130.433;    0.000;483.58216
 683.01;  548.013;   83.768;    0.000;464.24516
 683.16;  654.676;  160.568;    0.000;494.10815
 683.31;  715.539;  252.768;    0.000;462.77115
 683.46;  170.003; -229.631;    0.000;399.63415
 683.61;  550.866;   61.169;    0.000;489.69715
 683.77;  459.130;   21.369;    0.000;437.76015
 683.92;  616.993;  140.770;    0.000;476.22315
 684.07;  369.856;  -77.430;    0.000;447.28614
 684.22;  499.320;  -37.829;    0.000;537.14914
 684.37;  384.983; -107.429;    0.000;492.41214
 684.52;  882.046;  419.971;    0.000;462.07514
 684.67;  562.110;   13.572;    0.000;548.53814
 684.82;  530.773;   52.372;    0.000;478.40113
 684.97;  616.237;   42.972;    0.000;573.26413
 685.12;  476.500; -112.627;    0.000;589.12713
 685.27;  450.363;  -88.827;    0.000;539.19013
 685.42;  415.427;  -38.626;    0.000;454.05313
 685.57;  416.890;  -99.426;    0.000;516.31613
 685.72;  741.754;  185.574;    0.000;556.17912
 685.87;  603.817;   43.575;    0.000;560.24212
 686.02;  681.080;  125.575;    0.000;555.50512
 686.17;  471.944;  -21.824;    0.000;493.76812
 686.32;  570.607;   53.776;    0.000;516.83112
 686.47;  441.670; -152.024;    0.000;593.69411
 686.62; 1301.534;  542.777;    0.000;758.75711
 686.77; 1739.397;   34.577;    0.000;1704.82011
 686.92; 7097.461;   36.177;    0.000;7061.28311
 687.08; 8741.124;  148.178;    0.000;8592.94611
 687.23; 3802.387;  139.578;    0.000;3662.80910
 687.38; 1846.651;  149.779;    0.000;1696.87210
 687.53;  893.314;  -10.821;    0.000;904.13510
 687.68;  695.377; -124.621;    0.000;819.99810
 687.83;  957.441;  -19.420;    0.000;976.86110
 687.98; 1007.104;  156.580;    0.000;850.52410
 688.13; 1313.168;  570.581;    0.000;742.58709
 688.28;  638.631;    2.581;    0.000;636.05009
 688.43;  859.494;   95.781;    0.000;763.71309
 688.58; 1544.158;  241.182;    0.000;1302.97609
 688.73; 1427.621;   55.582;    0.000;1372.03909
 688.88;  831.085;  -70.418;    0.000;901.50208
 689.03;  834.348;   91.983;    0.000;742.36508
 689.18;  572.011;  -18.617;    0.000;590.62808
 689.33;  590.475;   41.784;    0.000;548.69108
 689.48;  408.738; -165.416;    0.000;574.15408
 689.63; 1376.401;  786.984;    0.000;589.41708
 689.78;  474.465; -122.815;    0.000;597.28007
 689.93;  739.328;  161.785;    0.000;577.54307
 690.08;  315.992; -204.415;    0.000;520.40607
 690.23;  861.255;  287.386;    0.000;573.86907
 690.38;  246.518; -354.214;    0.000;600.73207
 690.53;  540.982;    7.787;    0.000;533.19506
 690.68;  264.645; -256.813;    0.000;521.45806
 690.83;  838.708;   63.387;    0.000;775.32106
 690.98; 1045.372; -144.212;    0.000;1189.58406
 691.13; 1031.035;  114.788;    0.000;916.24706
 691.28;  637.499;   29.389;    0.000;608.11006
 691.43;  706.562;   69.189;    0.000;637.37305
 691.58;  360.625; -146.811;    0.000;507.43605
 691.73;  736.889;  233.990;    0.000;502.89905
 691.88;  222.552; -305.810;    0.000;528.36205
 692.03;  583.615;   77.390;    0.000;506.22505
 692.18;  350.879; -225.809;    0.000;576.68804
 692.33;  665.742;   91.991;    0.000;573.75104
 692.48;  421.406; -201.808;    0.000;623.21404
 692.63;  623.869;   68.592;    0.000;555.27704
 692.78;  612.332;   52.592;    0.000;559.74004
 692.93;  460.596; -110.407;    0.000;571.00303
 693.08;  335.259; -265.807;    0.000;601.06603
 693.23;  872.523;  257.194;    0.000;615.32903
 693.38;  972.586;   50.194;    0.000;922.39203
 693.53; 2963.249;  134.594;    0.000;2828.65503
 693.68; 4829.113; -136.405;    0.000;4965.51803
 693.83; 3362.776;   41.795;    0.000;3320.98102
 693.98; 1329.839; -391.805;    0.000;1721.64402
 694.13; 1384.903;  165.196;    0.000;1219.70702
 694.28;  870.566; -171.204;    0.000;1041.77002
 694.43;  842.030;  -38.003;    0.000;880.03302
 694.58; 1078.293;  135.597;    0.000;942.69601
 694.73; 1059.756;  157.397;    0.000;902.35901
 694.88; 1272.820;  -54.002;    0.000;1326.82201
 695.03; 1767.283;   77.798;    0.000;1689.48501
 695.18; 1576.546;  -14.602;    0.000;1591.14801
 695.33; 1564.210; -149.001;    0.000;1713.21101
 695.48; 2232.273;   26.199;    0.000;2206.07400
 695.63; 3448.537;  193.800;    0.000;3254.73700
 695.78; 6393.000;  906.400;    0.000;5486.60000
 695.93;10500.400;  363.200;    0.000;10137.20000
 696.08;26433.400; -107.400;    0.000;26540.80000
 696.23;62155.600;   47.400;    0.000;62108.20000
 696.38;61943.800;  129.600;    0.000;61814.20000
 696.53;62155.600;  -99.800;    0.000;62255.40000
 696.68;61943.800; -156.600;    0.000;62100.40000
 696.83;62155.600;  119.600;    0.000;62036.00000
 696.98;61943.800;  -70.000;    0.000;62013.80000
 697.13;62155.600; -133.600;    0.000;62289.20000
 697.28;61943.800; -192.800;    0.000;62136.60000
 697.43;62155.600;  -78.800;    0.000;62234.40000
 697.58;61943.800; -132.600;    0.000;62076.40000
 697.73;62155.600;  -40.600;    0.000;62196.20000
 697.88;61943.800; -332.000;    0.000;62275.80000
 698.03;60329.800;   91.000;    0.000;60238.80000
 698.18;61943.800; -229.200;    0.000;62173.00000
 698.32; 5352.400;  433.800;    0.000;4918.60000
 698.47; 6309.600;   26.800;    0.000;6282.80000
 698.62; 3353.200;   95.800;    0.000;3257.40000
 698.77; 3500.200;   26.000;    0.000;3474.20000
 698.92; 2820.200;  248.800;    0.000;2571.40000
 699.07; 2409.600; -385.800;    0.000;2795.40000
 699.22; 2012.800; -155.800;    0.000;2168.60000
 699.37; 1969.000; -308.800;    0.000;2277.80000
 699.52; 2158.000;  314.200;    0.000;1843.80000
 699.67; 1635.200; -187.200;    0.000;1822.40000
 699.82; 1734.600;  142.000;    0.000;1592.60000
 699.97; 1488.800; -122.000;    0.000;1610.80000
 700.12; 1377.200;  -59.200;    0.000;1436.40000
 700.27; 1140.800; -345.800;    0.000;1486.60000
 700.42; 1502.800;  104.200;    0.000;1398.60000
 700.57; 1245.000;  -70.800;    0.000;1315.80000
 700.72; 1054.200; -236.400;    0.000;1290.60000
 700.87; 1115.600; -120.200;    0.000;1235.80000
 701.02; 1260.200;  187.000;    0.000;1073.20000
 701.17; 1217.600;   41.600;    0.000;1176.00000
 701.32; 1025.200;  -20.400;    0.000;1045.60000
 701.47;  919.800; -177.400;    0.000;1097.20000
 701.61;  976.600;   10.600;    0.000;966.00000
 701.76;  729.200; -271.000;    0.000;1000.20000
 701.91;  932.800;  -58.200;    0.000;991.00000
 702.06;  909.200; -122.200;    0.000;1031.40000
 702.21; 1333.400;  286.000;    0.000;1047.40000
 702.36;  878.600; -169.200;    0.000;1047.80000
 702.51; 1159.000;   42.200;    0.000;1116.80000
 702.66; 1699.800; -300.400;    0.000;2000.20000
 702.81; 6519.200;  310.000;    0.000;6209.20000
 702.96; 7787.400;  105.000;    0.000;7682.40000
 703.11; 3874.000;  333.200;    0.000;3540.80000
 703.26; 1707.400; -189.400;    0.000;1896.80000
 703.41; 1409.600;  150.400;    0.000;1259.20000
 703.56;  980.800;  -73.400;    0.000;1054.20000
 703.71; 1068.400;  148.600;    0.000;919.80000
 703.86;  986.800;   70.000;    0.000;916.80000
 704.01;  766.200; -112.600;    0.000;878.80000
 704.15;  822.200; -116.000;    0.000;938.20000
 704.30;  947.600;   21.400;    0.000;926.20000
 704.45;  714.800; -242.000;    0.000;956.80000
 704.60; 1037.200;  105.800;    0.000;931.40000
 704.75;  778.600; -132.800;    0.000;911.40000
 704.90;  759.000; -156.200;    0.000;915.20000
 705.05;  837.000; -157.800;    0.000;994.80000
 705.20; 1178.200;   91.200;    0.000;1087.00000
 705.35; 1050.000;  -90.000;    0.000;1140.00000
 705.50; 1528.600;  181.400;    0.000;1347.20000
 705.65; 1531.200; -187.000;    0.000;1718.20000
 705.80; 2385.400;  149.200;    0.000;2236.20000
 705.95; 4070.600;  528.400;    0.000;3542.20000
 706.09; 6070.600; -130.000;    0.000;6200.60000
 706.24;16207.800;  181.200;    0.000;16026.60000
 706.39;62155.600;  280.400;    0.000;61875.20000
 706.54;61943.800;   29.000;    0.000;61914.80000
 706.69;62155.600;  578.200;    0.000;61577.40000
 706.84;61943.800;   67.800;    0.000;61876.00000
 706.99;62155.600;  201.600;    0.000;61954.00000
 707.14;61943.800;  211.600;    0.000;61732.20000
 707.29;62155.600;  262.000;    0.000;61893.60000
 707.44;61943.800; -242.200;    0.000;62186.00000
 707.59;61026.400;  460.200;    0.000;60566.20000
 707.73;61943.800;  -85.000;    0.000;62028.80000
 707.88; 5159.800;   -7.000;    0.000;5166.80000
 708.03; 7403.600;  -92.200;    0.000;7495.80000
 708.18; 3271.000;   48.600;    0.000;3222.40000
 708.33; 3843.600;  232.000;    0.000;3611.60000
 708.48; 2604.000;  198.800;    0.000;2405.20000
 708.63; 2500.800; -111.000;    0.000;2611.80000
 708.78; 2214.400;  450.000;    0.000;1764.40000
 708.93; 1856.000;   32.600;    0.000;1823.40000
 709.08; 1746.200;  326.000;    0.000;1420.20000
 709.23; 1451.800;  -68.600;    0.000;1520.40000
 709.37; 1475.400;  174.200;    0.000;1301.20000
 709.52; 1570.200;  132.000;    0.000;1438.20000
 709.67; 1108.400; -134.000;    0.000;1242.40000
 709.82; 1271.600;  -82.600;    0.000;1354.20000
 709.97; 1503.600;  360.600;    0.000;1143.00000
 710.12; 1423.800;  205.000;    0.000;1218.80000
 710.27;  885.400; -225.000;    0.000;1110.40000
 710.42; 1705.000;  335.800;    0.000;1369.20000
 710.57; 2221.600;  151.800;    0.000;2069.80000
 710.71; 1663.600; -258.600;    0.000;1922.20000
 710.86; 1205.800; -100.200;    0.000;1306.00000
 711.01;  920.800; -194.600;    0.000;1115.40000
 711.16;  934.600;   69.600;    0.000;865.00000
 711.31;  546.200; -398.800;    0.000;945.00000
 711.46;  853.400;   26.400;    0.000;827.00000
 711.61; 1388.400;  538.200;    0.000;850.20000
 711.76;  752.400;   51.000;    0.000;701.40000
 711.91; 1116.800;  379.200;    0.000;737.60000
 712.05;  890.800;  265.600;    0.000;625.20000
 712.20;  649.800; -101.400;    0.000;751.20000
 712.35; 1139.800;  241.000;    0.000;898.80000
 712.50; 1224.000;   97.800;    0.000;1126.20000
 712.65;  776.200;   30.000;    0.000;746.20000
 712.80;  749.400;   22.400;    0.000;727.00000
 712.95; 1001.400;  335.000;    0.000;666.40000
 713.10;  675.200;  -86.800;    0.000;762.00000
 713.24;  528.200; -176.200;    0.000;704.40000
 713.39;  116.000; -535.000;    0.000;651.00000
 713.54;  635.000; -108.000;    0.000;743.00000
 713.69;  713.200; -119.600;    0.000;832.80000
 713.84; 1019.400;  165.200;    0.000;854.20000
 713.99;  742.000; -249.200;    0.000;991.20000
 714.14; 1874.000;  405.200;    0.000;1468.80000
 714.29; 3608.600;   44.000;    0.000;3564.60000
 714.43;18624.600;   84.600;    0.000;18540.00000
 714.58;38020.200;  -93.000;    0.000;38113.20000
 714.73;20709.000;  281.000;    0.000;20428.00000
 714.88; 7878.800;  -44.200;    0.000;7923.00000
 715.03; 3198.200; -152.200;    0.000;3350.40000
 715.18; 1577.600; -169.200;    0.000;1746.80000
 715.33;  914.400; -215.800;    0.000;1130.20000
 715.47; 1014.000;  -48.000;    0.000;1062.00000
 715.62; 1155.800;   42.600;    0.000;1113.20000
 715.77; 1505.400;   71.000;    0.000;1434.40000
 715.92; 1216.400;  163.800;    0.000;1052.60000
 716.07;  992.600;   83.400;    0.000;909.20000
 716.22;  953.800;  182.800;    0.000;771.00000
 716.37;  569.200; -144.400;    0.000;713.60000
 716.51;  923.600;  251.800;    0.000;671.80000
 716.66;  420.000; -212.000;    0.000;632.00000
 716.81;  499.800;  -80.400;    0.000;580.20000
 716.96;  550.000;  -45.000;    0.000;595.00000
 717.11;  828.200;  216.600;    0.000;611.60000
 717.26;  644.400;   -1.600;    0.000;646.00000
 717.41;  381.200; -108.400;    0.000;489.60000
 717.55;  314.200; -265.200;    0.000;579.40000
 717.70;  644.200;  133.400;    0.000;510.80000
 717.85;  708.000;   99.000;    0.000;609.00000
 718.00;  460.800; -124.200;    0.000;585.00000
 718.15;  257.600; -249.600;    0.000;507.20000
 718.30;  826.800;  352.000;    0.000;474.80000
 718.44;  711.200;  174.200;    0.000;537.00000
 718.59;  728.800;  184.000;    0.000;544.80000
 718.74; 1022.000;  437.800;    0.000;584.20000
 718.89;  797.400;  258.600;    0.000;538.80000
 719.04;  353.600; -162.000;    0.000;515.60000
 719.19; 1018.800;  504.600;    0.000;514.20000
 719.33;  699.800;  180.800;    0.000;519.00000
 719.48; 1058.000;  444.200;    0.000;613.80000
 719.63;  241.000; -282.200;    0.000;523.20000
 719.78;  403.400;  -99.200;    0.000;502.60000
 719.93;  373.200; -140.000;    0.000;513.20000
 720.08;  606.200;   67.600;    0.000;538.60000
 720.22; 1005.000;  373.600;    0.000;631.40000
 720.37;  795.800;  -95.400;    0.000;891.20000
 720.52; 1870.800; -165.600;    0.000;2036.40000
 720.67; 2017.600;  310.200;    0.000;1707.40000
 720.82;  861.400; -136.600;    0.000;998.00000
 720.97;  966.600;  301.800;    0.000;664.80000
 721.11;  470.200;  -92.200;    0.000;562.40000
 721.26;  620.600;  101.400;    0.000;519.20000
 721.41;  191.600; -289.400;    0.000;481.00000
 721.56;  763.600;  311.000;    0.000;452.60000
 721.71;   49.000; -444.400;    0.000;493.40000
 721.86;  671.600;  148.400;    0.000;523.20000
 722.00;  554.600;   60.600;    0.000;494.00000
 722.15;  644.200;  172.400;    0.000;471.80000
 722.30;   59.800; -415.200;    0.000;475.00000
 722.45;  641.200;  212.000;    0.000;429.20000
 722.60;  494.600;   -5.800;    0.000;500.40000
 722.74;  510.800;    4.200;    0.000;506.60000
 722.89;  258.800; -347.600;    0.000;606.40000
 723.04;  598.000;  124.400;    0.000;473.60000
 723.19;  475.000;  -44.200;    0.000;519.20000
 723.34;  236.000; -220.600;    0.000;456.60000
 723.49;  588.600;  126.000;    0.000;462.60000
 723.63;  361.000;  -91.000;    0.000;452.00000
 723.78;  286.400; -172.400;    0.000;458.80000
 723.93;  239.400; -225.400;    0.000;464.80000
 724.08;  129.400; -306.800;    0.000;436.20000
 724.23;  927.800;  472.200;    0.000;455.60000
 724.37;  200.800; -232.000;    0.000;432.80000
 724.52;  586.000;  110.800;    0.000;475.20000
 724.67;  822.400;  297.200;    0.000;525.20000
 724.82;  651.800;  121.600;    0.000;530.20000
 724.97;  584.600;   82.600;    0.000;502.00000
 725.11;   72.400; -461.000;    0.000;533.40000
 725.26;  236.800; -249.200;    0.000;486.00000
 725.41;  471.200;  -17.600;    0.000;488.80000
 725.56;  442.800;  -78.400;    0.000;521.20000
 725.71;  396.600;  -87.000;    0.000;483.60000
 725.85;  413.800; -201.800;    0.000;615.60000
 726.00;  815.800;  161.800;    0.000;654.00000
 726.15;  664.600; -119.600;    0.000;784.20000
 726.30; 1393.000;  252.200;    0.000;1140.80000
 726.45; 1352.000; -119.600;    0.000;1471.60000
 726.59; 2001.200;  116.600;    0.000;1884.60000
 726.74; 3311.600; -221.200;    0.000;3532.80000
 726.89;12156.800;  -51.600;    0.000;12208.40000
 727.04;60288.600; -135.400;    0.000;60424.00000
 727.18;62155.600;   75.000;    0.000;62080.60000
 727.33;52225.400; -319.800;    0.000;52545.20000
 727.48;44241.400;   22.200;    0.000;44219.20000
 727.63; 7808.800; -379.000;    0.000;8187.80000
 727.78; 5445.800;   -6.400;    0.000;5452.20000
 727.92; 2236.400; -179.800;    0.000;2416.20000
 728.07; 2667.800;  -38.000;    0.000;2705.80000
 728.22; 1317.200; -144.200;    0.000;1461.40000
 728.37; 2116.400;  101.800;    0.000;2014.60000
 728.52; 1104.800;   -6.800;    0.000;1111.60000
 728.66; 1285.800; -217.800;    0.000;1503.60000
 728.81;  848.200; -142.200;    0.000;990.40000
 728.96; 1773.400;  535.400;    0.000;1238.00000
 729.11;  422.400; -339.800;    0.000;762.20000
 729.25; 1072.600;  -48.600;    0.000;1121.20000
 729.40;  509.800; -144.200;    0.000;654.00000
 729.55; 1102.000;   87.600;    0.000;1014.40000
 729.70;  468.000; -181.000;    0.000;649.00000
 729.84;  784.600; -113.000;    0.000;897.60000
 729.99;  527.200; -134.200;    0.000;661.40000
 730.14;  929.600;   62.800;    0.000;866.80000
 730.29;  876.800;  188.800;    0.000;688.00000
 730.44; 1020.400;  145.800;    0.000;874.60000
 730.58;  489.200; -169.400;    0.000;658.60000
 730.73; 1251.200;  304.000;    0.000;947.20000
 730.88;  867.400; -354.000;    0.000;1221.40000
 731.03; 2059.200;  -34.200;    0.000;2093.40000
 731.17; 1506.000;  -17.200;    0.000;1523.20000
 731.32; 1261.000; -106.600;    0.000;1367.60000
 731.47; 1494.400;   83.000;    0.000;1411.40000
 731.62;  882.400; -248.400;    0.000;1130.80000
 731.76;  498.000; -264.000;    0.000;762.00000
 731.91; 1147.400;  290.800;    0.000;856.60000
 732.06;  816.800;  106.000;    0.000;710.80000
 732.21;  695.800;  -65.000;    0.000;760.80000
 732.35;  355.200; -283.600;    0.000;638.80000
 732.50;  863.200;  175.200;    0.000;688.00000
 732.65;  477.000;  -71.200;    0.000;548.20000
 732.80;  441.200; -217.800;    0.000;659.00000
 732.94;  278.400; -265.200;    0.000;543.60000
 733.09;  811.600;  206.800;    0.000;604.80000
 733.24;  553.800;  -55.000;    0.000;608.80000
 733.39;  401.600; -216.200;    0.000;617.80000
 733.53;  506.000; -102.200;    0.000;608.20000
 733.68;  923.200;  249.600;    0.000;673.60000
 733.83;  927.400;  347.800;    0.000;579.60000
 733.98;  483.600; -116.000;    0.000;599.60000
 734.12;  523.600; -111.400;    0.000;635.00000
 734.27;  605.600; -101.600;    0.000;707.20000
 734.42;  308.600; -310.400;    0.000;619.00000
 734.57;  812.400;   85.800;    0.000;726.60000
 734.71;  240.200; -394.000;    0.000;634.20000
 734.86; 1114.400;   94.400;    0.000;1020.00000
 735.01; 1869.600;  -55.400;    0.000;1925.00000
 735.16; 3889.800;  -73.800;    0.000;3963.60000
 735.30; 3230.200;  153.600;    0.000;3076.60000
 735.45; 1853.400;  179.800;    0.000;1673.60000
 735.60;  990.400; -110.000;    0.000;1100.40000
 735.74; 1024.000;  -28.400;    0.000;1052.40000
 735.89;  749.400; -272.600;    0.000;1022.00000
 736.04; 1338.800;  362.600;    0.000;976.20000
 736.19;  848.600;  -78.800;    0.000;927.40000
 736.33; 1051.800;   64.000;    0.000;987.80000
 736.48;  738.400; -288.000;    0.000;1026.40000
 736.63; 1537.600;  198.600;    0.000;1339.00000
 736.78; 1988.600;  107.000;    0.000;1881.60000
 736.92; 5424.200;   33.800;    0.000;5390.40000
 737.07;10227.200;  -83.600;    0.000;10310.80000
 737.22; 7170.000;  118.600;    0.000;7051.40000
 737.36; 4465.400; -316.200;    0.000;4781.60000
 737.51; 5217.400;  279.000;    0.000;4938.40000
 737.66; 6851.600; -372.000;    0.000;7223.60000
 737.81;14182.000;  248.400;    0.000;13933.60000
 737.95;43972.400;  279.200;    0.000;43693.20000
 738.10;62155.600;   16.400;    0.000;62139.20000
 738.25;61943.800;  148.000;    0.000;61795.80000
 738.40;62155.600;   27.400;    0.000;62128.20000
 738.54;61943.800; -234.800;    0.000;62178.60000
 738.69;62155.600;  506.000;    0.000;61649.60000
 738.84;61943.800; -340.600;    0.000;62284.40000
 738.98;62155.600;  184.400;    0.000;61971.20000
 739.13;61943.800;  119.600;    0.000;61824.20000
 739.28;62155.600; -384.200;    0.000;62539.80000
 739.42;61943.800; -266.000;    0.000;62209.80000
 739.57;62155.600;  140.600;    0.000;62015.00000
 739.72;61943.800; -316.600;    0.000;62260.40000
 739.87;62155.600;  220.600;    0.000;61935.00000
 740.01;61943.800; -358.200;    0.000;62302.00000
 740.16;53117.400;   29.800;    0.000;53087.60000
 740.31;28012.200;   83.400;    0.000;27928.80000
 740.45; 4962.600; -126.800;    0.000;5089.40000
 740.60; 4503.000; -125.200;    0.000;4628.20000
 740.75; 3788.600;  321.000;    0.000;3467.60000
 740.90; 3320.200;  -36.600;    0.000;3356.80000
 741.04; 3566.600;  312.600;    0.000;3254.00000
 741.19; 2938.800;  -35.000;    0.000;2973.80000
 741.34; 2583.000;  174.800;    0.000;2408.20000
 741.48; 2551.600;  340.000;    0.000;2211.60000
 741.63; 2104.400;  161.000;    0.000;1943.40000
 741.78; 2115.600;  149.200;    0.000;1966.40000
 741.92; 2071.600;  250.400;    0.000;1821.20000
 742.07; 1948.600;   80.000;    0.000;1868.60000
 742.22; 1715.000; -178.400;    0.000;1893.40000
 742.36; 2254.600;   28.000;    0.000;2226.60000
 742.51; 1767.600; -114.800;    0.000;1882.40000
 742.66; 1813.600;  220.400;    0.000;1593.20000
 742.81; 1287.000; -151.400;    0.000;1438.40000
 742.95; 1458.400;  -34.800;    0.000;1493.20000
 743.10; 1716.200;  269.000;    0.000;1447.20000
 743.25; 2172.000;  -96.800;    0.000;2268.80000
 743.39; 3770.800;   29.200;    0.000;3741.60000
 743.54; 2750.200; -156.800;    0.000;2907.00000
 743.69; 2034.400;  167.400;    0.000;1867.00000
 743.83; 1619.400;  134.600;    0.000;1484.80000
 743.98; 1364.000;  -10.400;    0.000;1374.40000
 744.13; 1167.400;  -39.000;    0.000;1206.40000
 744.27; 1348.000;  127.400;    0.000;1220.60000
 744.42; 1103.200;  -81.200;    0.000;1184.40000
 744.57; 1202.000;   67.400;    0.000;1134.60000
 744.71;  603.600; -439.000;    0.000;1042.60000
 744.86; 1252.800;  199.200;    0.000;1053.60000
 745.01; 1203.600;  137.200;    0.000;1066.40000
 745.15;  901.200; -129.600;    0.000;1030.80000
 745.30;  812.000; -211.000;    0.000;1023.00000
 745.45; 1121.800;  159.200;    0.000;962.60000
 745.59;  835.600; -188.000;    0.000;1023.60000
 745.74;  837.400; -110.000;    0.000;947.40000
 745.89;  510.400; -454.800;    0.000;965.20000
 746.03; 1015.600;  121.400;    0.000;894.20000
 746.18;  801.800; -176.800;    0.000;978.60000
 746.33; 1115.800;  154.200;    0.000;961.60000
 746.47;  729.200; -181.000;    0.000;910.20000
 746.62; 1245.600;  257.200;    0.000;988.40000
 746.77; 1215.400;   36.600;    0.000;1178.80000
 746.91; 1536.800; -401.400;    0.000;1938.20000
 747.06; 1438.000; -379.000;    0.000;1817.00000
 747.21; 1782.600;  530.000;    0.000;1252.60000
 747.35; 1227.200;   73.200;    0.000;1154.00000
 747.50; 1642.200;  522.000;    0.000;1120.20000
 747.65;  898.600; -150.400;    0.000;1049.00000
 747.79; 1323.000;  142.000;    0.000;1181.00000
 747.94; 1311.000;  146.800;    0.000;1164.20000
 748.09; 1324.400;   49.600;    0.000;1274.80000
 748.23; 1671.000; -200.600;    0.000;1871.60000
 748.38; 2097.600;  293.000;    0.000;1804.60000
 748.53; 1749.000;  221.800;    0.000;1527.20000
 748.67; 1685.400;  137.600;    0.000;1547.80000
 748.82; 1622.200;  -38.400;    0.000;1660.60000
 748.96; 1922.200;  128.600;    0.000;1793.60000
 749.11; 1864.400; -145.200;    0.000;2009.60000
 749.26; 2788.000;  343.800;    0.000;2444.20000
 749.40; 2710.600; -376.400;    0.000;3087.00000
 749.55; 4511.400;   22.200;    0.000;4489.20000
 749.70; 7625.000;  216.000;    0.000;7409.00000
 749.84;16386.600;  126.800;    0.000;16259.80000
 749.99;58617.800;  144.000;    0.000;58473.80000
 750.14;62155.600;  432.400;    0.000;61723.20000
 750.28;61943.800; -252.200;    0.000;62196.00000
 750.43;62155.600;  133.400;    0.000;62022.20000
 750.58;61943.800;  -74.200;    0.000;62018.00000
 750.72;62155.600;  270.200;    0.000;61885.40000
 750.87;61943.800; -112.800;    0.000;62056.60000
 751.01;62155.600; -102.000;    0.000;62257.60000
 751.16;61943.800; -226.800;    0.000;62170.60000
 751.31;62155.600;  147.600;    0.000;62008.00000
 751.45;61943.800;   11.000;    0.000;61932.80000
 751.60;62155.600;   49.800;    0.000;62105.80000
 751.75;61943.800; -140.200;    0.000;62084.00000
 751.89;62155.600;  439.400;    0.000;61716.20000
 752.04;61943.800;   86.600;    0.000;61857.20000
 752.18;62155.600;   -6.400;    0.000;62162.00000
 752.33;61943.800; -210.800;    0.000;62154.60000
 752.48;62155.600;  220.200;    0.000;61935.40000
 752.62;61943.800; -177.000;    0.000;62120.80000
 752.77;62155.600;  153.000;    0.000;62002.60000
 752.92;61943.800; -159.800;    0.000;62103.60000
 753.06;62155.600;  142.800;    0.000;62012.80000
 753.21;61943.800; -104.200;    0.000;62048.00000
 753.35;62155.600;  102.400;    0.000;62053.20000
 753.50;61841.400; -173.800;    0.000;62015.20000
 753.65;58251.000;  244.600;    0.000;58006.40000
 753.79;10326.800;  -63.800;    0.000;10390.60000
 753.94; 5942.400;  395.600;    0.000;5546.80000
 754.08; 3826.400; -434.600;    0.000;4261.00000
 754.23; 4193.200;  289.400;    0.000;3903.80000
 754.38; 3608.600;  221.000;    0.000;3387.60000
 754.52; 3268.400;   90.400;    0.000;3178.00000
 754.67; 2435.000; -290.600;    0.000;2725.60000
 754.82; 2873.600;  269.400;    0.000;2604.20000
 754.96; 2499.600;   27.000;    0.000;2472.60000
 755.11; 2541.800;  147.600;    0.000;2394.20000
 755.25; 2125.600; -221.600;    0.000;2347.20000
 755.40; 2326.400;   60.600;    0.000;2265.80000
 755.55; 2182.200;   13.800;    0.000;2168.40000
 755.69; 2511.400;  377.600;    0.000;2133.80000
 755.84; 1882.000; -157.800;    0.000;2039.80000
 755.98; 2361.800;  349.000;    0.000;2012.80000
 756.13; 1882.000;  -63.200;    0.000;1945.20000
 756.28; 2046.200;  115.400;    0.000;1930.80000
 756.42; 1624.600; -319.200;    0.000;1943.80000
 756.57; 2524.200;  560.200;    0.000;1964.00000
 756.71; 1374.400; -381.800;    0.000;1756.20000
 756.86; 1674.400;  -38.000;    0.000;1712.40000
 757.01; 1329.600; -345.400;    0.000;1675.00000
 757.15; 1789.000;  199.400;    0.000;1589.60000
 757.30; 1314.800; -147.200;    0.000;1462.00000
 757.44; 1292.400; -150.800;    0.000;1443.20000
 757.59; 1435.200;   28.200;    0.000;1407.00000
 757.73; 1980.000;  616.600;    0.000;1363.40000
 757.88; 1662.000;  310.800;    0.000;1351.20000
 758.03; 1492.600;  184.400;    0.000;1308.20000
 758.17; 1307.400;  -89.000;    0.000;1396.40000
 758.32; 1560.800;  223.400;    0.000;1337.40000
 758.46; 1149.000; -107.000;    0.000;1256.00000
 758.61; 1450.400;  149.200;    0.000;1301.20000
 758.76; 1636.200;  287.800;    0.000;1348.40000
 758.90; 1443.000;  114.000;    0.000;1329.00000
 759.05; 1477.800;  170.400;    0.000;1307.40000
 759.19; 1460.800;  104.000;    0.000;1356.80000
 759.34; 1291.200;  -44.000;    0.000;1335.20000
 759.48; 1221.000; -130.400;    0.000;1351.40000
 759.63; 1641.400;  336.200;    0.000;1305.20000
 759.78; 1047.800; -183.800;    0.000;1231.60000
 759.92; 1028.800; -198.000;    0.000;1226.80000
 760.07; 1665.000;  386.800;    0.000;1278.20000
 760.21; 1272.800; -144.800;    0.000;1417.60000
 760.36; 1511.000;  111.600;    0.000;1399.40000
 760.50; 1208.600; -388.400;    0.000;1597.00000
 760.65; 2153.200;  292.200;    0.000;1861.00000
 760.80; 1873.600;  -58.400;    0.000;1932.00000
 760.94; 2266.400;  162.600;    0.000;2103.80000
 761.09; 1697.400; -297.600;    0.000;1995.00000
 761.23; 2313.000;  265.000;    0.000;2048.00000
 761.38; 1998.400; -241.200;    0.000;2239.60000
 761.52; 2098.000; -265.800;    0.000;2363.80000
 761.67; 2795.800; -117.800;    0.000;2913.60000
 761.82; 3258.600;   45.800;    0.000;3212.80000
 761.96; 3494.000; -151.600;    0.000;3645.60000
 762.11; 4242.400;  -66.600;    0.000;4309.00000
 762.25; 5352.400; -137.600;    0.000;5490.00000
 762.40; 7580.200;  -51.800;    0.000;7632.00000
 762.54;11304.400;   72.000;    0.000;11232.40000
 762.69;18355.600;   53.200;    0.000;18302.40000
 762.83;32706.800; -250.600;    0.000;32957.40000
 762.98;62155.600;   13.400;    0.000;62142.20000
 763.13;61943.800;  269.600;    0.000;61674.20000
 763.27;62155.600; -189.400;    0.000;62345.00000
 763.42;61943.800; -478.200;    0.000;62422.00000
 763.56;62155.600;  102.400;    0.000;62053.20000
 763.71;61943.800; -189.600;    0.000;62133.40000
 763.85;62155.600;  261.800;    0.000;61893.80000
 764.00;61943.800; -292.000;    0.000;62235.80000
 764.14;62155.600;   43.000;    0.000;62112.60000
 764.29;61943.800;   13.800;    0.000;61930.00000
 764.44;62155.600;   30.600;    0.000;62125.00000
 764.58;61943.800; -290.600;    0.000;62234.40000
 764.73;62155.600;  367.000;    0.000;61788.60000
 764.87;61943.800;  110.800;    0.000;61833.00000
 765.02;62155.600; -157.000;    0.000;62312.60000
 765.16;61943.800; -281.800;    0.000;62225.60000
 765.31;62155.600;  112.000;    0.000;62043.60000
 765.45;61943.800; -109.800;    0.000;62053.60000
 765.60;62155.600;  153.400;    0.000;62002.20000
 765.74;61943.800; -489.800;    0.000;62433.60000
 765.89;62155.600;  148.400;    0.000;62007.20000
 766.03;61943.800; -170.800;    0.000;62114.60000
 766.18;62155.600;  115.400;    0.000;62040.20000
 766.33;61943.800; -396.000;    0.000;62339.80000
 766.47;62155.600;  384.400;    0.000;61771.20000
 766.62;61943.800;  736.400;    0.000;61207.40000
 766.76;62155.600;   17.600;    0.000;62138.00000
 766.91;61943.800; -221.400;    0.000;62165.20000
 767.05;62155.600;  544.000;    0.000;61611.60000
 767.20;61943.800; -143.200;    0.000;62087.00000
 767.34;62155.600;  129.400;    0.000;62026.20000
 767.49;61943.800; -103.600;    0.000;62047.40000
 767.63;62155.600;   64.200;    0.000;62091.40000
 767.78;61943.800;  282.000;    0.000;61661.80000
 767.92;62155.600;  157.600;    0.000;61998.00000
 768.07;61943.800; -248.200;    0.000;62192.00000
 768.21;62155.600;  308.000;    0.000;61847.60000
 768.36;61943.800; -144.000;    0.000;62087.80000
 768.50;62155.600;   68.000;    0.000;62087.60000
 768.65;60479.000; -462.000;    0.000;60941.00000
 768.79; 8559.200;  385.600;    0.000;8173.60000
 768.94; 7497.000; -223.400;    0.000;7720.40000
 769.08; 7374.400;  497.000;    0.000;6877.40000
 769.23; 8352.800; -381.000;    0.000;8733.80000
 769.37;15192.000;  389.600;    0.000;14802.40000
 769.52;56205.600;   25.600;    0.000;56180.00000
 769.66;62155.600;   80.000;    0.000;62075.60000
 769.81;61943.800; -394.600;    0.000;62338.40000
 769.95;62155.600;  612.400;    0.000;61543.20000
 770.10;61943.800;   34.600;    0.000;61909.20000
 770.24;62155.600;  -12.400;    0.000;62168.00000
 770.39;61943.800;  -80.000;    0.000;62023.80000
 770.53;62155.600;  242.400;    0.000;61913.20000
 770.68;49988.000;   51.600;    0.000;49936.40000
 770.82;12875.800;  -79.800;    0.000;12955.60000
 770.97; 6923.600;  -66.200;    0.000;6989.80000
 771.11; 6878.000;  587.200;    0.000;6290.80000
 771.26; 6085.000;   99.600;    0.000;5985.40000
 771.40; 6339.000;  -84.400;    0.000;6423.40000
 771.55; 7607.000; -216.400;    0.000;7823.40000
 771.69;11864.200;  477.400;    0.000;11386.80000
 771.84;22145.800; -256.000;    0.000;22401.80000
 771.98;62155.600;   17.200;    0.000;62138.40000
 772.13;61943.800;  -37.400;    0.000;61981.20000
 772.27;62155.600;  234.600;    0.000;61921.00000
 772.42;61943.800;  -51.400;    0.000;61995.20000
 772.56;62155.600;   26.600;    0.000;62129.00000
 772.71;61943.800;  -46.600;    0.000;61990.40000
 772.85;62155.600;  136.200;    0.000;62019.40000
 773.00;61943.800;  -69.400;    0.000;62013.20000
 773.14;62155.600;   27.600;    0.000;62128.00000
 773.29;61943.800; -558.600;    0.000;62502.40000
 773.43;62155.600;  376.200;    0.000;61779.40000
 773.58;61943.800; -148.000;    0.000;62091.80000
 773.72;62155.600;  493.400;    0.000;61662.20000
 773.87;61943.800; -259.600;    0.000;62203.40000
 774.01;62155.600;  209.800;    0.000;61945.80000
 774.16;61943.800; -179.400;    0.000;62123.20000
 774.30; 8080.400;  -32.800;    0.000;8113.20000
 774.45;47292.200; -269.800;    0.000;47562.00000
 774.59; 4370.200;  116.200;    0.000;4254.00000
 774.74; 5303.600; -147.200;    0.000;5450.80000
 774.88; 3564.000;  296.600;    0.000;3267.40000
 775.03; 3398.200; -371.200;    0.000;3769.40000
 775.17; 3042.800;  323.200;    0.000;2719.60000
 775.32; 3166.800;  138.000;    0.000;3028.80000
 775.46; 2249.400; -162.200;    0.000;2411.60000
 775.60; 2158.200; -344.600;    0.000;2502.80000
 775.75; 2220.600;  151.200;    0.000;2069.40000
 775.89; 2218.400;  -16.400;    0.000;2234.80000
 776.04; 2135.400;  135.200;    0.000;2000.20000
 776.18; 1738.200; -407.200;    0.000;2145.40000
 776.33; 1905.000;  106.200;    0.000;1798.80000
 776.47; 1451.800; -398.800;    0.000;1850.60000
 776.62; 1522.600;  -44.800;    0.000;1567.40000
 776.76; 1406.800; -296.000;    0.000;1702.80000
 776.91; 1745.000;  288.000;    0.000;1457.00000
 777.05; 1628.800;  146.200;    0.000;1482.60000
 777.20; 1411.200;  -18.200;    0.000;1429.40000
 777.34; 1299.800; -170.800;    0.000;1470.60000
 777.48; 1476.200;  168.400;    0.000;1307.80000
 777.63; 1164.600; -155.600;    0.000;1320.20000
 777.77; 1337.600;  101.200;    0.000;1236.40000
 777.92;  981.800; -312.800;    0.000;1294.60000
 778.06; 1658.200;  443.600;    0.000;1214.60000
 778.21; 1191.000;  -19.400;    0.000;1210.40000
 778.35; 1342.400;  208.800;    0.000;1133.60000
 778.50; 1259.400;   63.800;    0.000;1195.60000
 778.64; 1588.800;  494.200;    0.000;1094.60000
 778.79; 1070.800;  -23.800;    0.000;1094.60000
 778.93;  837.000; -137.600;    0.000;974.60000
 779.07;  883.600; -219.400;    0.000;1103.00000
 779.22; 1149.200;  188.600;    0.000;960.60000
 779.36; 1091.400;   68.400;    0.000;1023.00000
 779.51; 1173.400;  213.400;    0.000;960.00000
 779.65;  924.200; -288.400;    0.000;1212.60000
 779.80; 1667.200;   65.600;    0.000;1601.60000
 779.94; 1647.600;   29.400;    0.000;1618.20000
 780.08; 1658.800;  522.800;    0.000;1136.00000
 780.23;  637.200; -393.800;    0.000;1031.00000
 780.37; 1103.600;  190.600;    0.000;913.00000
 780.52;  764.200; -123.200;    0.000;887.40000
 780.66;  967.400;  148.200;    0.000;819.20000
 780.81;  627.600; -184.200;    0.000;811.80000
 780.95; 1045.000;  268.800;    0.000;776.20000
 781.10;  910.200;   19.200;    0.000;891.00000
 781.24;  530.800; -270.400;    0.000;801.20000
 781.38;  388.800; -433.800;    0.000;822.60000
 781.53;  894.200;  103.200;    0.000;791.00000
 781.67;  506.600; -285.000;    0.000;791.60000
 781.82;  708.200;  -31.200;    0.000;739.40000
 781.96;  625.400; -169.000;    0.000;794.40000
 782.11;  895.600;  211.800;    0.000;683.80000
 782.25;  772.600;    2.000;    0.000;770.60000
 782.39;  990.800;  222.400;    0.000;768.40000
 782.54;  511.000; -202.400;    0.000;713.40000
 782.68;  866.600;  124.400;    0.000;742.20000
 782.83;  799.200;   24.600;    0.000;774.60000
 782.97; 1201.800;  468.800;    0.000;733.00000
 783.11;  394.000; -305.200;    0.000;699.20000
 783.26;  837.000;  138.400;    0.000;698.60000
 783.40;  879.000;  142.200;    0.000;736.80000
 783.55;  865.600;  175.600;    0.000;690.00000
 783.69;  549.600; -183.600;    0.000;733.20000
 783.84; 1279.800;  493.200;    0.000;786.60000
 783.98;  529.000; -103.600;    0.000;632.60000
 784.12;  764.800;  106.400;    0.000;658.40000
 784.27;  543.400; -181.400;    0.000;724.80000
 784.41;  796.800;  103.800;    0.000;693.00000
 784.56;  676.800;  -33.400;    0.000;710.20000
 784.70;  766.800;  134.400;    0.000;632.40000
 784.84;   78.000; -487.800;    0.000;565.80000
 784.99;  588.200;  -71.000;    0.000;659.20000
 785.13;  696.200;   21.800;    0.000;674.40000
 785.28;  663.800;    1.200;    0.000;662.60000
 785.42;  550.600; -122.800;    0.000;673.40000
 785.56;  883.800;  236.200;    0.000;647.60000
 785.71;  674.400;   93.800;    0.000;580.60000
 785.85;  597.600;  -34.800;    0.000;632.40000
 786.00;  453.800; -228.200;    0.000;682.00000
 786.14;  583.600;  -34.000;    0.000;617.60000
 786.28;  435.200; -207.200;    0.000;642.40000
 786.43;  373.800; -269.800;    0.000;643.60000
 786.57;  334.600; -416.200;    0.000;750.80000
 786.72;  908.800;  141.200;    0.000;767.60000
 786.86;  950.000;  235.200;    0.000;714.80000
 787.00;  879.200;  207.800;    0.000;671.40000
 787.15;  118.800; -525.600;    0.000;644.40000
 787.29;  608.400;  -32.800;    0.000;641.20000
 787.44;  528.200; -121.400;    0.000;649.60000
 787.58;  699.000;   63.000;    0.000;636.00000
 787.72;  694.200;   -0.200;    0.000;694.40000
 787.87; 1586.600;  874.600;    0.000;712.00000
 788.01;  499.400; -139.600;    0.000;639.00000
 788.15; 1088.200;  435.600;    0.000;652.60000
 788.30;  291.600; -317.000;    0.000;608.60000
 788.44;  873.000;  248.200;    0.000;624.80000
 788.59;  358.600; -285.400;    0.000;644.00000
 788.73;  770.400;  -49.600;    0.000;820.00000
 788.87; 1362.000; -139.400;    0.000;1501.40000
 789.02; 1947.000;  432.000;    0.000;1515.00000
 789.16; 1308.200;  302.800;    0.000;1005.40000
 789.30;  998.000;  191.400;    0.000;806.60000
 789.45;  490.200; -189.200;    0.000;679.40000
 789.59;  940.800;  297.600;    0.000;643.20000
 789.74;  795.200;  164.600;    0.000;630.60000
 789.88;  578.800;   -6.800;    0.000;585.60000
 790.02;  448.400; -171.400;    0.000;619.80000
 790.17; 1189.800;  592.800;    0.000;597.00000
 790.31;  683.800;    9.600;    0.000;674.20000
 790.45;  589.600;  -20.400;    0.000;610.00000
 790.60;  136.400; -513.200;    0.000;649.60000
 790.74;  829.000;  178.200;    0.000;650.80000
 790.89;  693.200;   29.000;    0.000;664.20000
 791.03;  498.800; -214.000;    0.000;712.80000
 791.17;  686.600;  -47.400;    0.000;734.00000
 791.32;  954.400;  262.600;    0.000;691.80000
 791.46;  548.800; -201.600;    0.000;750.40000
 791.60;  374.800; -319.000;    0.000;693.80000
 791.75;  482.200; -270.200;    0.000;752.40000
 791.89; 1121.200;  319.400;    0.000;801.80000
 792.03;  726.800;  -60.000;    0.000;786.80000
 792.18;  777.600;  -11.000;    0.000;788.60000
 792.32;  508.000; -278.800;    0.000;786.80000
 792.46; 1164.800;  291.200;    0.000;873.60000
 792.61; 1048.600;  145.600;    0.000;903.00000
 792.75;  726.200; -152.800;    0.000;879.00000
 792.89;  373.800; -596.800;    0.000;970.60000
 793.04; 1425.000;  359.200;    0.000;1065.80000
 793.18; 1087.000;  -68.600;    0.000;1155.60000
 793.33; 1125.800; -124.600;    0.000;1250.40000
 793.47; 1235.200; -246.400;    0.000;1481.60000
 793.61; 2249.600;  350.600;    0.000;1899.00000
 793.76; 2374.800;  -18.800;    0.000;2393.60000
 793.90; 3219.200;  -76.200;    0.000;3295.40000
 794.04; 4909.800; -199.400;    0.000;5109.20000
 794.19; 9833.200;  430.800;    0.000;9402.40000
 794.33;26178.200;  103.200;    0.000;26075.00000
 794.47;62155.600;  222.000;    0.000;61933.60000
 794.62;61943.800;  -50.400;    0.000;61994.20000
 794.76;62155.600;  153.200;    0.000;62002.40000
 794.90;61943.800;   26.800;    0.000;61917.00000
 795.05;62155.600; -137.800;    0.000;62293.40000
 795.19;61943.800; -292.600;    0.000;62236.40000
 795.33;62155.600;  -26.400;    0.000;62182.00000
 795.48;61943.800;  -33.800;    0.000;61977.60000
 795.62;62155.600;   -9.200;    0.000;62164.80000
 795.76;61943.800; -283.400;    0.000;62227.20000
 795.91;61929.200;  149.600;    0.000;61779.60000
 796.05;61943.800; -202.800;    0.000;62146.60000
 796.19; 6726.400; -196.800;    0.000;6923.20000
 796.34;30819.800; -353.000;    0.000;31172.80000
 796.48; 4400.800;  235.400;    0.000;4165.40000
 796.62; 5199.200;  119.600;    0.000;5079.60000
 796.77; 3124.200;  -21.200;    0.000;3145.40000
 796.91; 3079.600; -437.000;    0.000;3516.60000
 797.05; 2576.400;   60.600;    0.000;2515.80000
 797.20; 2887.600;   27.200;    0.000;2860.40000
 797.34; 2025.600; -160.000;    0.000;2185.60000
 797.48; 1870.800; -535.400;    0.000;2406.20000
 797.62; 2563.400;  633.000;    0.000;1930.40000
 797.77; 2288.800;   67.600;    0.000;2221.20000
 797.91; 1985.600;   20.800;    0.000;1964.80000
 798.05; 1780.600; -282.400;    0.000;2063.00000
 798.20; 2374.600;  562.200;    0.000;1812.40000
 798.34; 2004.600;   70.600;    0.000;1934.00000
 798.48; 1760.200;  -36.400;    0.000;1796.60000
 798.63; 1647.200; -314.000;    0.000;1961.20000
 798.77; 2434.200;  480.600;    0.000;1953.60000
 798.91; 1976.000;    1.800;    0.000;1974.20000
 799.06; 2447.200;  513.000;    0.000;1934.20000
 799.20; 1725.000; -309.600;    0.000;2034.60000
 799.34; 2468.000;  437.400;    0.000;2030.60000
 799.48; 2567.800;  170.600;    0.000;2397.20000
 799.63; 3059.600;  263.000;    0.000;2796.60000
 799.77; 3109.000; -579.200;    0.000;3688.20000
 799.91; 5046.400;   30.200;    0.000;5016.20000
 800.06; 9665.400;  -20.400;    0.000;9685.80000
 800.20;32996.800;  146.600;    0.000;32850.20000
 800.34;61943.800;  -36.800;    0.000;61980.60000
 800.49;62155.600;  220.600;    0.000;61935.00000
 800.63;61943.800;  217.600;    0.000;61726.20000
 800.77;62155.600; -134.600;    0.000;62290.20000
 800.91;61943.800; -307.600;    0.000;62251.40000
 801.06;62155.600;  342.600;    0.000;61813.00000
 801.20;61943.800;  -40.200;    0.000;61984.00000
 801.34;62155.600;  -12.600;    0.000;62168.20000
 801.49;61943.800; -471.000;    0.000;62414.80000
 801.63;62155.600;   59.600;    0.000;62096.00000
 801.77;61943.800;  -37.400;    0.000;61981.20000
 801.91;62155.600;  -74.400;    0.000;62230.00000
 802.06;61943.800; -262.200;    0.000;62206.00000
 802.20;62155.600;  269.800;    0.000;61885.80000
 802.34;61943.800;  110.200;    0.000;61833.60000
 802.49;62155.600; -242.000;    0.000;62397.60000
 802.63;61943.800;  372.400;    0.000;61571.40000
 802.77;62155.600;  334.200;    0.000;61821.40000
 802.91;42909.600; -188.600;    0.000;43098.20000
 803.06;61180.600; -229.600;    0.000;61410.20000
 803.20; 5585.200;  -41.800;    0.000;5627.00000
 803.34; 6961.000;  456.200;    0.000;6504.80000
 803.49; 4039.000; -238.200;    0.000;4277.20000
 803.63; 4652.200;   77.000;    0.000;4575.20000
 803.77; 2978.000; -509.000;    0.000;3487.00000
 803.91; 3728.600;  214.200;    0.000;3514.40000
 804.06; 2804.800;  -72.600;    0.000;2877.40000
 804.20; 3062.600;   51.400;    0.000;3011.20000
 804.34; 2775.400;  -88.000;    0.000;2863.40000
 804.48; 3309.600;  291.400;    0.000;3018.20000
 804.63; 2635.800;  -51.200;    0.000;2687.00000
 804.77; 2800.200;  188.200;    0.000;2612.00000
 804.91; 2140.400; -224.000;    0.000;2364.40000
 805.06; 3046.400;  376.600;    0.000;2669.80000
 805.20; 2452.600; -156.200;    0.000;2608.80000
 805.34; 2422.400;   32.800;    0.000;2389.60000
 805.48; 1307.600; -582.600;    0.000;1890.20000
 805.63; 2359.600;  499.000;    0.000;1860.60000
 805.77; 1777.400;   47.800;    0.000;1729.60000
 805.91; 1505.600; -194.800;    0.000;1700.40000
 806.05; 1440.600; -267.800;    0.000;1708.40000
 806.20; 1694.600;   44.000;    0.000;1650.60000
 806.34; 1652.800;   26.400;    0.000;1626.40000
 806.48; 2211.000;  483.600;    0.000;1727.40000
 806.62; 1645.800;   11.000;    0.000;1634.80000
 806.77; 2314.200;  758.800;    0.000;1555.40000
 806.91; 1560.000;    5.200;    0.000;1554.80000
 807.05; 1543.200;  -65.200;    0.000;1608.40000
 807.19; 1321.200; -312.000;    0.000;1633.20000
 807.34; 1999.800;  414.400;    0.000;1585.40000
 807.48; 1385.800; -266.200;    0.000;1652.00000
 807.62; 1398.000; -232.800;    0.000;1630.80000
 807.76; 1082.200; -596.600;    0.000;1678.80000
 807.91; 2098.400;  455.400;    0.000;1643.00000
 808.05; 1931.000;  130.200;    0.000;1800.80000
 808.19; 1572.200; -224.200;    0.000;1796.40000
 808.33; 1481.800; -300.800;    0.000;1782.60000
 808.48; 2196.800;   48.000;    0.000;2148.80000
 808.62; 2426.200;   -8.800;    0.000;2435.00000
 808.76; 2582.600;  -31.200;    0.000;2613.80000
 808.90; 2288.000; -441.400;    0.000;2729.40000
 809.04; 3004.000;   97.000;    0.000;2907.00000
 809.19; 3435.600; -171.200;    0.000;3606.80000
 809.33; 4654.000;  380.200;    0.000;4273.80000
 809.47; 5973.400;  113.600;    0.000;5859.80000
 809.61; 8846.400;  265.000;    0.000;8581.40000
 809.76;15430.200;    7.800;    0.000;15422.40000
 809.90;40391.800;  248.800;    0.000;40143.00000
 810.04;61943.800;  -43.600;    0.000;61987.40000
 810.18;62155.600;  387.000;    0.000;61768.60000
 810.33;61943.800;  138.800;    0.000;61805.00000
 810.47;62155.600;   82.800;    0.000;62072.80000
 810.61;61943.800; -129.000;    0.000;62072.80000
 810.75;62155.600;   25.200;    0.000;62130.40000
 810.89;61943.800;  -16.600;    0.000;61960.40000
 811.04;62155.600;   73.600;    0.000;62082.00000
 811.18;61943.800;  494.200;    0.000;61449.60000
 811.32;62155.600;  413.600;    0.000;61742.00000
 811.46;61943.800;   57.400;    0.000;61886.40000
 811.61;62155.600; -302.600;    0.000;62458.20000
 811.75;61943.800; -188.600;    0.000;62132.40000
 811.89;62155.600;  132.000;    0.000;62023.60000
 812.03;61943.800;  275.400;    0.000;61668.40000
 812.17;62155.600; -275.800;    0.000;62431.40000
 812.32;61943.800; -126.800;    0.000;62070.60000
 812.46;62155.600;  310.800;    0.000;61844.80000
 812.60;61943.800;  -55.800;    0.000;61999.60000
 812.74;62155.600;   38.200;    0.000;62117.40000
 812.88;61943.800; -544.400;    0.000;62488.20000
 813.03;62155.600;  319.600;    0.000;61836.00000
 813.17;61943.800;  -14.600;    0.000;61958.40000
 813.31;62155.600;  163.200;    0.000;61992.40000
 813.45;61943.800; -186.000;    0.000;62129.80000
 813.59;62155.600;  158.800;    0.000;61996.80000
 813.74;61943.800;  104.000;    0.000;61839.80000
 813.88;62155.600;   55.200;    0.000;62100.40000
 814.02;61943.800; -456.600;    0.000;62400.40000
 814.16;62155.600;  138.200;    0.000;62017.40000
 814.30;61943.800;  141.000;    0.000;61802.80000
 814.45;62155.600;  -53.400;    0.000;62209.00000
 814.59;61943.800; -281.400;    0.000;62225.20000
 814.73;62155.600;  220.000;    0.000;61935.60000
 814.87;61943.800; -163.000;    0.000;62106.80000
 815.01;62155.600;  185.400;    0.000;61970.20000
 815.16;61943.800; -390.400;    0.000;62334.20000
 815.30;62155.600;  316.400;    0.000;61839.20000
 815.44;61943.800; -214.400;    0.000;62158.20000
 815.58; 6689.400; -100.600;    0.000;6790.00000
 815.72;42892.400; -238.800;    0.000;43131.20000
 815.87; 4495.200;   64.200;    0.000;4431.00000
 816.01; 5392.200;  -96.400;    0.000;5488.60000
 816.15; 3694.000;   46.200;    0.000;3647.80000
 816.29; 3998.800; -285.600;    0.000;4284.40000
 816.43; 3526.000;  101.200;    0.000;3424.80000
 816.57; 3498.200; -214.800;    0.000;3713.00000
 816.72; 2924.400;   88.600;    0.000;2835.80000
 816.86; 2847.400; -282.000;    0.000;3129.40000
 817.00; 3236.400;  361.600;    0.000;2874.80000
 817.14; 3511.000;  201.800;    0.000;3309.20000
 817.28; 3036.200;   -1.800;    0.000;3038.00000
 817.43; 3132.400; -377.000;    0.000;3509.40000
 817.57; 4177.200;  149.200;    0.000;4028.00000
 817.71; 6473.600;  128.000;    0.000;6345.60000
 817.85;12706.800; -154.600;    0.000;12861.40000
 817.99;61112.800; -301.600;    0.000;61414.40000
 818.13;62155.600;  378.800;    0.000;61776.80000
 818.28;61943.800; -177.200;    0.000;62121.00000
 818.42;62155.600;   87.400;    0.000;62068.20000
 818.56;47825.600; -524.200;    0.000;48349.80000
 818.70;57998.400;  407.400;    0.000;57591.00000
 818.84;13131.000;   34.000;    0.000;13097.00000
 818.98;23377.800; -243.000;    0.000;23620.80000
 819.13;61943.800;  -53.400;    0.000;61997.20000
 819.27;62155.600;  417.000;    0.000;61738.60000
 819.41;61943.800;   90.600;    0.000;61853.20000
 819.55;62155.600;   97.600;    0.000;62058.00000
 819.69;61943.800; -370.600;    0.000;62314.40000
 819.83;62155.600;  581.000;    0.000;61574.60000
 819.98;61943.800;  200.800;    0.000;61743.00000
 820.12;62155.600; -123.600;    0.000;62279.20000
 820.26;54841.600; -399.600;    0.000;55241.20000
 820.40;62155.600;  423.400;    0.000;61732.20000
 820.54; 6771.000;  387.400;    0.000;6383.60000
 820.68; 7235.000; -140.200;    0.000;7375.20000
 820.82; 3936.400; -297.400;    0.000;4233.80000
 820.97; 4858.000;  384.000;    0.000;4474.00000
 821.11; 3529.000;  187.200;    0.000;3341.80000
 821.25; 3493.200;  218.000;    0.000;3275.20000
 821.39; 2152.400; -414.600;    0.000;2567.00000
 821.53; 3903.600; 1092.200;    0.000;2811.40000
 821.67; 2701.400;  377.000;    0.000;2324.40000
 821.81; 2498.600;  123.400;    0.000;2375.20000
 821.96; 1610.800; -387.400;    0.000;1998.20000
 822.10; 2183.000;  164.800;    0.000;2018.20000
 822.24; 1930.400;   96.800;    0.000;1833.60000
 822.38; 1553.800; -289.800;    0.000;1843.60000
 822.52; 1379.000; -337.600;    0.000;1716.60000
 822.66; 1988.800;  274.200;    0.000;1714.60000
 822.80; 1735.800;   92.000;    0.000;1643.80000
 822.95; 1557.400; -152.000;    0.000;1709.40000
 823.09; 1164.000; -472.400;    0.000;1636.40000
 823.23; 2609.800;  910.600;    0.000;1699.20000
 823.37; 1493.000;  -36.200;    0.000;1529.20000
 823.51; 1385.600; -129.800;    0.000;1515.40000
 823.65; 1215.400; -192.600;    0.000;1408.00000
 823.79; 1597.800;  179.000;    0.000;1418.80000
 823.94; 1329.400;    6.800;    0.000;1322.60000
 824.08; 1224.200;  -43.800;    0.000;1268.00000
 824.22;  983.000; -246.600;    0.000;1229.60000
 824.36; 2071.200;  713.800;    0.000;1357.40000
 824.50; 1474.200;   91.800;    0.000;1382.40000
 824.64; 1672.200;  313.800;    0.000;1358.40000
 824.78;  927.200; -370.600;    0.000;1297.80000
 824.92; 1801.000;  384.800;    0.000;1416.20000
 825.06; 1353.400; -183.600;    0.000;1537.00000
 825.21; 1990.800;  268.600;    0.000;1722.20000
 825.35; 1826.800; -173.800;    0.000;2000.60000
 825.49; 3237.400;  694.800;    0.000;2542.60000
 825.63; 3210.600; -128.000;    0.000;3338.60000
 825.77; 5096.000;  -68.600;    0.000;5164.60000
 825.91;10567.000; -475.800;    0.000;11042.80000
 826.05;44611.200;  453.600;    0.000;44157.60000
 826.19;61943.800;  -60.200;    0.000;62004.00000
 826.34;62155.600;   23.800;    0.000;62131.80000
 826.48;61943.800; -441.400;    0.000;62385.20000
 826.62;62155.600;  125.800;    0.000;62029.80000
 826.76;61943.800;  455.600;    0.000;61488.20000
 826.90;62155.600;   90.000;    0.000;62065.60000
 827.04;60879.400;  -63.400;    0.000;60942.80000
 827.18;43155.200;  456.800;    0.000;42698.40000
 827.32; 6827.000;  193.200;    0.000;6633.80000
 827.46; 5889.400;   99.400;    0.000;5790.00000
 827.60; 3547.800; -486.400;    0.000;4034.20000
 827.75; 4200.400;  475.600;    0.000;3724.80000
 827.89; 2955.800;    3.600;    0.000;2952.20000
 828.03; 2650.400; -178.200;    0.000;2828.60000
 828.17; 1840.200; -475.800;    0.000;2316.00000
 828.31; 2618.000;  441.600;    0.000;2176.40000
 828.45; 2244.400;  298.200;    0.000;1946.20000
 828.59; 1909.200;   54.400;    0.000;1854.80000
 828.73; 1101.600; -559.000;    0.000;1660.60000
 828.87; 1923.200;  250.000;    0.000;1673.20000
 829.01; 1596.600;   93.400;    0.000;1503.20000
 829.16; 1667.400;  294.000;    0.000;1373.40000
 829.30;  750.400; -557.600;    0.000;1308.00000
 829.44; 1621.400;  296.800;    0.000;1324.60000
 829.58; 1465.200;  209.400;    0.000;1255.80000
 829.72; 1469.800;  270.000;    0.000;1199.80000
 829.86; 1301.200;  -12.200;    0.000;1313.40000
 830.00; 1546.600;  260.200;    0.000;1286.40000
 830.14; 1118.200;  -73.200;    0.000;1191.40000
 830.28; 1343.000;   85.200;    0.000;1257.80000
 830.42;  644.400; -462.000;    0.000;1106.40000
 830.56; 1751.400;  603.200;    0.000;1148.20000
 830.70; 1343.200;  288.800;    0.000;1054.40000
 830.85;  850.200;  -94.400;    0.000;944.60000
 830.99;  623.400; -381.400;    0.000;1004.80000
 831.13; 1291.400;  324.600;    0.000;966.80000
 831.27; 1088.000;  155.800;    0.000;932.20000
 831.41;  755.000; -209.200;    0.000;964.20000
 831.55; 1099.800;   30.000;    0.000;1069.80000
 831.69; 1335.800;  396.200;    0.000;939.60000
 831.83;  800.600;  -65.000;    0.000;865.60000
 831.97; 1163.600;  339.400;    0.000;824.20000
 832.11;  779.200; -160.200;    0.000;939.40000
 832.25; 1310.200;  475.000;    0.000;835.20000
 832.39;  851.400;   26.000;    0.000;825.40000
 832.53;  669.600; -159.000;    0.000;828.60000
 832.67; 1316.400;  475.800;    0.000;840.60000
 832.81; 1213.000;  446.400;    0.000;766.60000
 832.96;  761.200;  -86.600;    0.000;847.80000
 833.10;  620.200; -228.800;    0.000;849.00000
 833.24;  435.800; -396.000;    0.000;831.80000
 833.38; 1119.000;  338.200;    0.000;780.80000
 833.52;  635.200;  -80.200;    0.000;715.40000
 833.66;  676.400;  -42.800;    0.000;719.20000
 833.80;  686.000;  -88.000;    0.000;774.00000
 833.94; 1187.400;  457.600;    0.000;729.80000
 834.08;  608.600; -127.800;    0.000;736.40000
 834.22;  521.400; -207.800;    0.000;729.20000
 834.36;  368.400; -384.200;    0.000;752.60000
 834.50;  812.400;  111.800;    0.000;700.60000
 834.64;  829.400;   68.600;    0.000;760.80000
 834.78;  558.600; -165.200;    0.000;723.80000
 834.92;  757.000;  -26.600;    0.000;783.60000
 835.06; 1133.400;  428.200;    0.000;705.20000
 835.20; 1344.800;  652.400;    0.000;692.40000
 835.34;  723.200;    4.000;    0.000;719.20000
 835.48;  641.200;  -30.200;    0.000;671.40000
 835.63;  755.200;  102.400;    0.000;652.80000
 835.77;  959.200;  254.400;    0.000;704.80000
 835.91;  578.400;  -43.600;    0.000;622.00000
 836.05;  213.800; -499.600;    0.000;713.40000
 836.19;  861.800;  174.200;    0.000;687.60000
 836.33; 1310.200;  592.800;    0.000;717.40000
 836.47;  537.000; -143.200;    0.000;680.20000
 836.61;  206.800; -423.400;    0.000;630.20000
 836.75;  983.800;  422.000;    0.000;561.80000
 836.89;  772.400;  106.200;    0.000;666.20000
 837.03;  331.400; -329.800;    0.000;661.20000
 837.17;  524.000; -112.200;    0.000;636.20000
 837.31;  805.000;  184.600;    0.000;620.40000
 837.45;  717.600;    7.400;    0.000;710.20000
 837.59;  439.400; -188.000;    0.000;627.40000
 837.73;  364.600; -325.600;    0.000;690.20000
 837.87;  771.800;  -65.000;    0.000;836.80000
 838.01;  865.200;  -12.000;    0.000;877.20000
 838.15;  612.000; -289.200;    0.000;901.20000
 838.29;  691.200; -246.000;    0.000;937.20000
 838.43; 1136.200;  320.600;    0.000;815.60000
 838.57;  796.400;  -46.800;    0.000;843.20000
 838.71; 1134.000;  284.000;    0.000;850.00000
 838.85;  776.200; -190.800;    0.000;967.00000
 838.99; 1221.200;  142.600;    0.000;1078.60000
 839.13; 1964.400;  762.800;    0.000;1201.60000
 839.27; 1329.800;   33.000;    0.000;1296.80000
 839.41; 1354.000; -175.600;    0.000;1529.60000
 839.55; 2120.400;  346.400;    0.000;1774.00000
 839.69; 2495.600;  288.400;    0.000;2207.20000
 839.83; 2834.000;  -90.400;    0.000;2924.40000
 839.97; 3676.400; -479.400;    0.000;4155.80000
 840.11; 6625.400;  128.800;    0.000;6496.60000
 840.25;13288.400;  -27.400;    0.000;13315.80000
 840.39;42320.200; -381.200;    0.000;42701.40000
 840.53;61943.800; -501.600;    0.000;62445.40000
 840.67;62155.600;  424.600;    0.000;61731.00000
 840.81;61943.800;  165.800;    0.000;61778.00000
 840.95;62155.600;  154.000;    0.000;62001.60000
 841.09;61943.800;  -99.600;    0.000;62043.40000
 841.23;62155.600;  494.400;    0.000;61661.20000
 841.37;61943.800;   25.800;    0.000;61918.00000
 841.51;62155.600; -243.000;    0.000;62398.60000
 841.65;61943.800; -324.800;    0.000;62268.60000
 841.79;62155.600;  321.200;    0.000;61834.40000
 841.93;56479.800;   93.000;    0.000;56386.80000
 842.07;62155.600;  106.200;    0.000;62049.40000
 842.21;61943.800; -390.000;    0.000;62333.80000
 842.35;62155.600;  627.800;    0.000;61527.80000
 842.49;61943.800;  151.400;    0.000;61792.40000
 842.63;62155.600;   -0.400;    0.000;62156.00000
 842.77;61943.800; -369.400;    0.000;62313.20000
 842.91;62155.600;  481.200;    0.000;61674.40000
 843.05;61943.800;  556.600;    0.000;61387.20000
 843.19;62155.600; -161.200;    0.000;62316.80000
 843.33;61943.800;   56.600;    0.000;61887.20000
 843.47;62155.600;  244.200;    0.000;61911.40000
 843.61;61943.800;   78.000;    0.000;61865.80000
 843.75;62155.600; -198.000;    0.000;62353.60000
 843.89;61943.800; -250.600;    0.000;62194.40000
 844.03;61095.600;  291.600;    0.000;60804.00000
 844.17;54518.800;  251.400;    0.000;54267.40000
 844.31; 6436.800;  115.400;    0.000;6321.40000
 844.45; 6314.000;  143.000;    0.000;6171.00000
 844.59; 4741.400;  414.200;    0.000;4327.20000
 844.73; 4020.600; -134.800;    0.000;4155.40000
 844.87; 2965.600; -221.400;    0.000;3187.00000
 845.01; 2610.200; -446.400;    0.000;3056.60000
 845.15; 2662.200;  120.200;    0.000;2542.00000
 845.29; 2472.000;   -3.600;    0.000;2475.60000
 845.43; 2278.200;   38.800;    0.000;2239.40000
 845.57; 2246.800; -112.800;    0.000;2359.60000
 845.71; 2454.600;  203.600;    0.000;2251.00000
 845.85; 2229.400;   28.400;    0.000;2201.00000
 845.99; 1745.400; -306.600;    0.000;2052.00000
 846.13; 1456.400; -412.600;    0.000;1869.00000
 846.27; 2462.600;  633.800;    0.000;1828.80000
 846.41; 1706.800;  -74.200;    0.000;1781.00000
 846.55; 1696.000;   52.400;    0.000;1643.60000
 846.68; 1181.200; -329.200;    0.000;1510.40000
 846.82; 1916.800;  567.800;    0.000;1349.00000
 846.96; 1355.800;   29.600;    0.000;1326.20000
 847.10; 1586.200;  235.600;    0.000;1350.60000
 847.24; 1131.200; -214.600;    0.000;1345.80000
 847.38; 1346.200;   88.400;    0.000;1257.80000
 847.52; 1274.400;   51.400;    0.000;1223.00000
 847.66; 1146.600;  -22.800;    0.000;1169.40000
 847.80;  964.000; -153.400;    0.000;1117.40000
 847.94; 1170.800;  104.000;    0.000;1066.80000
 848.08; 1117.000;   75.800;    0.000;1041.20000
 848.22; 1087.200;    3.000;    0.000;1084.20000
 848.36;  894.200;  -97.400;    0.000;991.60000
 848.50; 1482.400;  513.600;    0.000;968.80000
 848.64; 1027.600;   58.600;    0.000;969.00000
 848.78;  777.800; -187.200;    0.000;965.00000
 848.92;  636.200; -345.600;    0.000;981.80000
 849.06; 1376.200;  456.600;    0.000;919.60000
 849.20;  840.800;  -84.200;    0.000;925.00000
 849.34;  656.400; -228.600;    0.000;885.00000
 849.47;  612.000; -202.000;    0.000;814.00000
 849.61; 1414.800;  573.000;    0.000;841.80000
 849.75;  794.400;    6.600;    0.000;787.80000
 849.89;  402.000; -350.400;    0.000;752.40000
 850.03;  358.800; -448.800;    0.000;807.60000
 850.17; 1174.600;  327.200;    0.000;847.40000
 850.31;  601.000; -149.200;    0.000;750.20000
 850.45;  630.800; -174.800;    0.000;805.60000
 850.59;  706.400; -154.200;    0.000;860.60000
 850.73; 1300.200;  376.600;    0.000;923.60000
 850.87;  972.800;  -83.400;    0.000;1056.20000
 851.01; 1252.800;  100.200;    0.000;1152.60000
 851.15;  850.200; -493.400;    0.000;1343.60000
 851.29; 2521.600;  733.600;    0.000;1788.00000
 851.42; 2877.600;  200.600;    0.000;2677.00000
 851.56; 5008.600;   67.000;    0.000;4941.60000
 851.70;12972.200; -278.800;    0.000;13251.00000
 851.84;62155.600;  275.000;    0.000;61880.60000
 851.98;61943.800;  143.200;    0.000;61800.60000
 852.12;62155.600; -312.400;    0.000;62468.00000
 852.26;61943.800; -451.400;    0.000;62395.20000
 852.40;15103.800;  488.200;    0.000;14615.60000
 852.54;31299.600;   55.000;    0.000;31244.60000
 852.68; 4838.800; -109.200;    0.000;4948.00000
 852.82; 5123.800; -337.200;    0.000;5461.00000
 852.96; 3219.200;  141.200;    0.000;3078.00000
 853.09; 3777.800;  302.200;    0.000;3475.60000
 853.23; 1871.400; -293.400;    0.000;2164.80000
 853.37; 2164.000; -353.200;    0.000;2517.20000
 853.51; 2131.200;  349.200;    0.000;1782.00000
 853.65; 2183.200;  184.600;    0.000;1998.60000
 853.79; 1310.800;  -82.600;    0.000;1393.40000
 853.93;  910.200; -680.200;    0.000;1590.40000
 854.07; 2062.800;  803.200;    0.000;1259.60000
 854.21; 1389.800;  -44.400;    0.000;1434.20000
 854.35;  918.800; -202.600;    0.000;1121.40000
 854.49; 1132.200; -105.200;    0.000;1237.40000
 854.62;  910.000;  -60.800;    0.000;970.80000
 854.76; 1425.200;  264.000;    0.000;1161.20000
 854.90;  452.000; -460.800;    0.000;912.80000
 855.04;  793.600; -289.000;    0.000;1082.60000
 855.18; 1100.000;  216.400;    0.000;883.60000
 855.32; 1486.200;  475.600;    0.000;1010.60000
 855.46; 1091.400;  209.000;    0.000;882.40000
 855.60;  496.000; -471.800;    0.000;967.80000
 855.74; 1787.600;  941.800;    0.000;845.80000
 855.87;  992.600;  106.600;    0.000;886.00000
 856.01;  804.800;   55.800;    0.000;749.00000
 856.15;  643.200; -165.400;    0.000;808.60000
 856.29; 1250.800;  513.400;    0.000;737.40000
 856.43;  749.800;  -28.800;    0.000;778.60000
 856.57;  901.400;  334.600;    0.000;566.80000
 856.71;  672.800;  -73.600;    0.000;746.40000
 856.85;  742.800;   74.600;    0.000;668.20000
 856.99;  638.000;  -34.600;    0.000;672.60000
 857.12;  387.200; -209.000;    0.000;596.20000
 857.26;  184.400; -471.000;    0.000;655.40000
 857.40;  999.400;  435.600;    0.000;563.80000
 857.54; 1091.200;  423.600;    0.000;667.60000
 857.68;  616.200;   32.000;    0.000;584.20000
 857.82;  507.000; -145.000;    0.000;652.00000
 857.96;  925.800;  372.800;    0.000;553.00000
 858.10;  783.000;  181.400;    0.000;601.60000
 858.23;  562.400;   46.800;    0.000;515.60000
 858.37;  390.000; -130.000;    0.000;520.00000
 858.51;  852.600;  311.200;    0.000;541.40000
 858.65;  880.200;  323.000;    0.000;557.20000
 858.79;  256.600; -203.400;    0.000;460.00000
 858.93;  125.000; -414.800;    0.000;539.80000
 859.07;  687.200;  194.000;    0.000;493.20000
 859.20;  909.800;  359.200;    0.000;550.60000
 859.34;  556.600;   88.400;    0.000;468.20000
 859.48;  -31.600; -538.600;    0.000;507.00000

