
Integration time [ms]: 100.000
Averaging Nr. [scans]: 10
Smoothing Nr. [pixels]: 0
Data measured with spectrometer [name]: 1804345U2
Wave   ;Sample   ;Dark     ;Reference;Scope Corrected for Dark
[nm]   ;[counts] ;[counts] ;[counts] 

 318.09;  -46.800;  -43.200;    0.000;-3.60000
 318.11;   -1.100;   14.500;    0.000;-15.60000
 318.13;    0.100;  -15.700;    0.000;15.80000
 318.15;  -25.700;  -37.700;    0.000;12.00000
 318.16;  -72.700;  -38.600;    0.000;-34.10000
 318.18;   48.700;   36.100;    0.000;12.60000
 318.20;  -11.800;  -15.600;    0.000; 3.80000
 318.22;    9.400;   -7.000;    0.000;16.40000
 318.24;  -27.600;  -26.900;    0.000;-0.70000
 318.26;   55.400;   40.900;    0.000;14.50000
 318.28;   -5.500;   11.900;    0.000;-17.40000
 318.30;   17.500;   47.000;    0.000;-29.50000
 318.32;  -12.600;   -5.200;    0.000;-7.40000
 318.34;   26.300;   51.200;    0.000;-24.90000
 318.36;  -27.500;   -5.300;    0.000;-22.20000
 318.38;   46.400;   37.600;    0.000; 8.80000
 318.40;    5.600;   24.600;    0.000;-19.00000
 318.42;  -44.900;  -57.800;    0.000;12.90000
 318.43;  -23.200;  -19.300;    0.000;-3.90000
 318.45;   15.600;   -3.500;    0.000;19.10000
 318.47;  -34.500;  -43.500;    0.000; 9.00000
 318.49;    1.900;   20.700;    0.000;-18.80000
 318.51;    4.100;   34.700;    0.000;-30.60000
 318.53;   92.400;   74.700;    0.000;17.70000
 318.55;  -38.500;  -30.600;    0.000;-7.90000
 318.57;   65.100;   74.200;    0.000;-9.10000
 318.59;  -33.700;   -3.300;    0.000;-30.40000
 318.61;   -9.600;   -7.300;    0.000;-2.30000
 318.63;  -29.600;  -56.500;    0.000;26.90000
 318.65;  -33.500;  -13.100;    0.000;-20.40000
 318.67;  -37.800;  -33.400;    0.000;-4.40000
 318.68;   29.400;   49.400;    0.000;-20.00000
 318.70;  -93.000;  -71.700;    0.000;-21.30000
 318.72;   60.900;   61.000;    0.000;-0.10000
 318.74;  -66.700;  -73.500;    0.000; 6.80000
 318.76;   98.600;   85.400;    0.000;13.20000
 318.78;   45.500;   16.300;    0.000;29.20000
 318.80;   21.200;   26.700;    0.000;-5.50000
 318.82;  -26.400;  -57.600;    0.000;31.20000
 318.84;   34.200;   20.000;    0.000;14.20000
 318.86;  -41.900;  -50.300;    0.000; 8.40000
 318.88;   20.200;   19.000;    0.000; 1.20000
 318.90;    2.100;  -25.700;    0.000;27.80000
 318.92;   50.300;   26.100;    0.000;24.20000
 318.93;   36.000;   19.600;    0.000;16.40000
 318.95;   53.300;   81.500;    0.000;-28.20000
 318.97;   33.700;   18.900;    0.000;14.80000
 318.99;   15.400;   13.600;    0.000; 1.80000
 319.01;    5.400;    1.600;    0.000; 3.80000
 319.03;  -14.100;  -13.200;    0.000;-0.90000
 319.05;   59.600;   21.100;    0.000;38.50000
 319.07;  -59.600;  -68.900;    0.000; 9.30000
 319.09;   10.500;    9.500;    0.000; 1.00000
 319.11;    0.800;   -8.000;    0.000; 8.80000
 319.13;   80.000;   82.800;    0.000;-2.80000
 319.15;   42.700;   16.700;    0.000;26.00000
 319.17;   -0.400;  -13.500;    0.000;13.10000
 319.18;   13.200;   -3.400;    0.000;16.60000
 319.20;  -26.700;   -4.900;    0.000;-21.80000
 319.22;   57.500;   22.300;    0.000;35.20000
 319.24;  -39.500;  -39.600;    0.000; 0.10000
 319.26;   44.700;   22.600;    0.000;22.10000
 319.28;   28.200;   22.000;    0.000; 6.20000
 319.30;   73.200;   53.500;    0.000;19.70000
 319.32;  -25.200;  -27.300;    0.000; 2.10000
 319.34;   48.000;   50.500;    0.000;-2.50000
 319.36;  -24.700;  -71.200;    0.000;46.50000
 319.38;   13.400;    9.500;    0.000; 3.90000
 319.40;  -43.100;  -83.800;    0.000;40.70000
 319.41;   65.800;   55.100;    0.000;10.70000
 319.43;   23.200;   17.100;    0.000; 6.10000
 319.45;   68.200;   63.200;    0.000; 5.00000
 319.47;   -9.500;  -41.100;    0.000;31.60000
 319.49;  -25.600;  -26.800;    0.000; 1.20000
 319.51;   -4.100;  -25.100;    0.000;21.00000
 319.53;    8.800;   18.400;    0.000;-9.60000
 319.55;   31.700;   15.300;    0.000;16.40000
 319.57;  -18.600;  -26.500;    0.000; 7.90000
 319.59;  -27.900;   21.500;    0.000;-49.40000
 319.61;  -14.200;  -25.100;    0.000;10.90000
 319.62;   20.100;   25.600;    0.000;-5.50000
 319.64;   49.700;   41.700;    0.000; 8.00000
 319.66;    2.800;  -28.600;    0.000;31.40000
 319.68;   23.400;   29.800;    0.000;-6.40000
 319.70;  -54.600;  -85.700;    0.000;31.10000
 319.72;   49.700;   31.800;    0.000;17.90000
 319.74;   19.400;    9.900;    0.000; 9.50000
 319.76;   -5.000;    2.400;    0.000;-7.40000
 319.78;  -16.800;  -12.100;    0.000;-4.70000
 319.80;   46.000;   18.300;    0.000;27.70000
 319.82;   34.600;   -2.700;    0.000;37.30000
 319.83;   18.500;   11.400;    0.000; 7.10000
 319.85;  -17.700;  -38.000;    0.000;20.30000
 319.87;   13.500;   -6.100;    0.000;19.60000
 319.89;  -52.200;  -69.000;    0.000;16.80000
 319.91;   42.200;  -19.400;    0.000;61.60000
 319.93;    8.000;   38.300;    0.000;-30.30000
 319.95;  -29.500;  -24.800;    0.000;-4.70000
 319.97;  -40.000;  -48.500;    0.000; 8.50000
 319.99;    9.900;  -20.900;    0.000;30.80000
 320.01;   -9.200;   -6.100;    0.000;-3.10000
 320.03;  -55.100;  -81.300;    0.000;26.20000
 320.04;    7.200;    0.900;    0.000; 6.30000
 320.06;   75.800;   47.300;    0.000;28.50000
 320.08;  -34.900;  -51.100;    0.000;16.20000
 320.10;  111.700;  122.900;    0.000;-11.20000
 320.12;  -16.400;  -17.600;    0.000; 1.20000
 320.14;   -0.900;    3.100;    0.000;-4.00000
 320.16;   -6.100;  -16.900;    0.000;10.80000
 320.18;   25.800;   28.400;    0.000;-2.60000
 320.20;  -18.800;  -44.300;    0.000;25.50000
 320.22;   16.200;   19.100;    0.000;-2.90000
 320.24;  -37.300;  -20.500;    0.000;-16.80000
 320.25;   61.500;   62.800;    0.000;-1.30000
 320.27;   12.000;   12.500;    0.000;-0.50000
 320.29;    5.300;   17.500;    0.000;-12.20000
 320.31;  -10.800;    4.800;    0.000;-15.60000
 320.33;   58.700;   56.500;    0.000; 2.20000
 320.35;  -23.400;  -18.800;    0.000;-4.60000
 320.37;  -14.900;  -44.300;    0.000;29.40000
 320.39;  -62.100;  -50.700;    0.000;-11.40000
 320.41;    0.900;   16.300;    0.000;-15.40000
 320.43;  -14.600;   20.500;    0.000;-35.10000
 320.44;   15.500;  -35.900;    0.000;51.40000
 320.46;   17.800;   25.400;    0.000;-7.60000
 320.48;   37.600;   37.500;    0.000; 0.10000
 320.50;   44.900;   26.000;    0.000;18.90000
 320.52;  -11.100;  -21.300;    0.000;10.20000
 320.54;   40.500;   22.500;    0.000;18.00000
 320.56;   50.000;   39.500;    0.000;10.50000
 320.58;   84.500;   92.600;    0.000;-8.10000
 320.60;   -7.200;   -4.900;    0.000;-2.30000
 320.62;  -79.000; -117.800;    0.000;38.80000
 320.64;   -7.300;   -1.300;    0.000;-6.00000
 320.65;  -59.000;  -49.300;    0.000;-9.70000
 320.67;   70.500;   14.200;    0.000;56.30000
 320.69;  163.900;   48.000;    0.000;115.90000
 320.71;  194.000;   90.900;    0.000;103.10000
 320.73;  157.800;   54.200;    0.000;103.60000
 320.75;   64.700;    3.900;    0.000;60.80000
 320.77;   13.000;  -13.900;    0.000;26.90000
 320.79;    7.300;  -15.600;    0.000;22.90000
 320.81;  -58.900;  -49.200;    0.000;-9.70000
 320.83;   43.300;    6.600;    0.000;36.70000
 320.84;   85.800;  100.400;    0.000;-14.60000
 320.86;   22.200;  -15.100;    0.000;37.30000
 320.88;  -70.800;  -65.100;    0.000;-5.70000
 320.90;  -20.200;  -24.700;    0.000; 4.50000
 320.92;   -3.900;  -20.700;    0.000;16.80000
 320.94;   54.900;   38.800;    0.000;16.10000
 320.96;  -50.600;  -61.200;    0.000;10.60000
 320.98;   39.100;    4.000;    0.000;35.10000
 321.00;  -27.300;  -61.300;    0.000;34.00000
 321.01;   40.300;   22.900;    0.000;17.40000
 321.03;   17.300;    7.300;    0.000;10.00000
 321.05;   83.600;   59.000;    0.000;24.60000
 321.07;  -20.900;  -24.800;    0.000; 3.90000
 321.09;   28.700;   13.500;    0.000;15.20000
 321.11;  -10.700;  -43.100;    0.000;32.40000
 321.13;    1.000;  -45.100;    0.000;46.10000
 321.15;  -44.000;  -34.000;    0.000;-10.00000
 321.17;  115.200;  111.000;    0.000; 4.20000
 321.19;   -1.900;    6.400;    0.000;-8.30000
 321.20;   -6.300;  -12.900;    0.000; 6.60000
 321.22;   41.900;   16.500;    0.000;25.40000
 321.24;  -11.500;   -5.200;    0.000;-6.30000
 321.26;  -46.800;  -54.000;    0.000; 7.20000
 321.28;    4.100;  -34.400;    0.000;38.50000
 321.30;   58.400;   27.500;    0.000;30.90000
 321.32;   23.800;   37.000;    0.000;-13.20000
 321.34;  -59.600;  -64.800;    0.000; 5.20000
 321.36;   41.500;    0.000;    0.000;41.50000
 321.37;   70.900;   44.900;    0.000;26.00000
 321.39;    5.600;   -1.400;    0.000; 7.00000
 321.41;   28.700;   13.500;    0.000;15.20000
 321.43;   18.300;   16.200;    0.000; 2.10000
 321.45;   45.100;   38.700;    0.000; 6.40000
 321.47;   61.900;   45.200;    0.000;16.70000
 321.49;   24.300;   10.900;    0.000;13.40000
 321.51;   -2.400;  -13.900;    0.000;11.50000
 321.53;    5.000;  -32.700;    0.000;37.70000
 321.54;   14.900;   -0.400;    0.000;15.30000
 321.56;   -8.200;   -5.100;    0.000;-3.10000
 321.58;   10.500;    7.800;    0.000; 2.70000
 321.60;   47.800;   47.300;    0.000; 0.50000
 321.62;   75.100;   62.800;    0.000;12.30000
 321.64;   30.400;   32.300;    0.000;-1.90000
 321.66;   57.600;   15.900;    0.000;41.70000
 321.68;   -0.400;   34.500;    0.000;-34.90000
 321.70;   74.800;   31.200;    0.000;43.60000
 321.71;  -40.800;  -53.900;    0.000;13.10000
 321.73;   14.200;    9.100;    0.000; 5.10000
 321.75;   -7.600;  -37.000;    0.000;29.40000
 321.77;   -1.700;  -35.600;    0.000;33.90000
 321.79;   -2.000;  -14.900;    0.000;12.90000
 321.81;    9.600;   -1.700;    0.000;11.30000
 321.83;   59.300;   10.900;    0.000;48.40000
 321.85;   58.800;   58.400;    0.000; 0.40000
 321.87;  -12.000;  -12.700;    0.000; 0.70000
 321.88;   45.600;   10.000;    0.000;35.60000
 321.90;   56.300;   33.700;    0.000;22.60000
 321.92;   24.100;   35.700;    0.000;-11.60000
 321.94;   31.600;    2.700;    0.000;28.90000
 321.96;   20.800;  -13.800;    0.000;34.60000
 321.98;   72.500;   44.200;    0.000;28.30000
 322.00;   50.700;   59.400;    0.000;-8.70000
 322.02;  -30.400;   16.900;    0.000;-47.30000
 322.04;  -41.900;  -66.400;    0.000;24.50000
 322.05;  -10.400;  -24.300;    0.000;13.90000
 322.07;    3.000;  -19.500;    0.000;22.50000
 322.09;  -39.600;  -66.500;    0.000;26.90000
 322.11;   -0.600;    9.800;    0.000;-10.40000
 322.13;   16.900;   -7.000;    0.000;23.90000
 322.15;  113.800;   97.100;    0.000;16.70000
 322.17;  -12.100;  -24.200;    0.000;12.10000
 322.19;  -48.100;  -28.600;    0.000;-19.50000
 322.20;   -7.500;  -30.400;    0.000;22.90000
 322.22;   92.200;   56.400;    0.000;35.80000
 322.24;  -18.900;  -40.500;    0.000;21.60000
 322.26;  -40.600;  -56.600;    0.000;16.00000
 322.28;   -4.500;   -2.400;    0.000;-2.10000
 322.30;   50.500;    3.800;    0.000;46.70000
 322.32;  -50.800;  -61.500;    0.000;10.70000
 322.34;   -3.300;  -38.900;    0.000;35.60000
 322.36;  -11.700;  -37.100;    0.000;25.40000
 322.37;   25.300;  -16.800;    0.000;42.10000
 322.39;  -10.500;  -37.900;    0.000;27.40000
 322.41;   63.300;    5.800;    0.000;57.50000
 322.43;   61.100;   50.100;    0.000;11.00000
 322.45;   63.200;   52.900;    0.000;10.30000
 322.47;   43.000;   12.100;    0.000;30.90000
 322.49;  -19.600;  -38.700;    0.000;19.10000
 322.51;  -24.000;  -49.100;    0.000;25.10000
 322.52;    8.600;  -14.200;    0.000;22.80000
 322.54;  -12.800;  -29.900;    0.000;17.10000
 322.56;  -69.600;  -66.700;    0.000;-2.90000
 322.58;   10.000;    2.000;    0.000; 8.00000
 322.60;    9.800;  -30.100;    0.000;39.90000
 322.62;   38.200;   -1.900;    0.000;40.10000
 322.64;   75.300;   35.500;    0.000;39.80000
 322.66;   25.900;   12.300;    0.000;13.60000
 322.67;  150.300;  136.300;    0.000;14.00000
 322.69;   43.400;   20.000;    0.000;23.40000
 322.71;  -15.600;  -40.600;    0.000;25.00000
 322.73;   89.100;   63.100;    0.000;26.00000
 322.75;   84.200;   55.600;    0.000;28.60000
 322.77;   45.900;   11.100;    0.000;34.80000
 322.79;   74.900;   41.200;    0.000;33.70000
 322.81;  101.100;   61.800;    0.000;39.30000
 322.82;  -34.000;  -48.800;    0.000;14.80000
 322.84;   59.300;   13.900;    0.000;45.40000
 322.86;   11.100;   -6.900;    0.000;18.00000
 322.88;  -16.800;  -16.500;    0.000;-0.30000
 322.90;   90.900;   68.500;    0.000;22.40000
 322.92;   33.700;   -8.000;    0.000;41.70000
 322.94;  -23.800;  -36.200;    0.000;12.40000
 322.96;   35.700;  -31.400;    0.000;67.10000
 322.97;   39.800;   20.100;    0.000;19.70000
 322.99;   38.500;    8.600;    0.000;29.90000
 323.01;   67.400;   -9.700;    0.000;77.10000
 323.03;   60.500;   31.000;    0.000;29.50000
 323.05;   95.100;   53.600;    0.000;41.50000
 323.07;    3.200;  -23.800;    0.000;27.00000
 323.09;   53.300;    4.100;    0.000;49.20000
 323.11;   57.800;   24.300;    0.000;33.50000
 323.12;   48.300;    3.400;    0.000;44.90000
 323.14;  -13.300;  -68.200;    0.000;54.90000
 323.16;   65.200;  -14.900;    0.000;80.10000
 323.18;   69.800;  -10.500;    0.000;80.30000
 323.20;  118.600;   30.800;    0.000;87.80000
 323.22;  112.000;   34.000;    0.000;78.00000
 323.24;   23.500;  -19.200;    0.000;42.70000
 323.25;   65.300;   15.100;    0.000;50.20000
 323.27;   38.200;  -57.600;    0.000;95.80000
 323.29;  103.700;   25.300;    0.000;78.40000
 323.31;   38.800;  -60.500;    0.000;99.30000
 323.33;   54.900;  -46.300;    0.000;101.20000
 323.35;   79.600;   15.000;    0.000;64.60000
 323.37;   61.900;  -32.700;    0.000;94.60000
 323.39;  151.900;   77.000;    0.000;74.90000
 323.40;   25.600;  -20.800;    0.000;46.40000
 323.42;   91.100;   12.800;    0.000;78.30000
 323.44;  125.200;   57.500;    0.000;67.70000
 323.46;   99.200;  -27.300;    0.000;126.50000
 323.48;  122.100;   -3.500;    0.000;125.60000
 323.50;   96.200;   16.400;    0.000;79.80000
 323.52;   61.200;  -29.900;    0.000;91.10000
 323.53;   49.500;  -49.100;    0.000;98.60000
 323.55;   78.700;  -41.300;    0.000;120.00000
 323.57;  198.800;   54.500;    0.000;144.30000
 323.59;   47.600;  -50.500;    0.000;98.10000
 323.61;  108.500;    7.500;    0.000;101.00000
 323.63;  122.100;   46.100;    0.000;76.00000
 323.65;  100.500;  -32.000;    0.000;132.50000
 323.67;  110.800;   -9.700;    0.000;120.50000
 323.68;  134.800;    7.300;    0.000;127.50000
 323.70;   98.100;   -8.500;    0.000;106.60000
 323.72;  112.300;    3.900;    0.000;108.40000
 323.74;   93.000;  -30.900;    0.000;123.90000
 323.76;  104.500;    3.600;    0.000;100.90000
 323.78;  147.800;   30.400;    0.000;117.40000
 323.80;  114.000;   -2.000;    0.000;116.00000
 323.81;   94.900;  -31.000;    0.000;125.90000
 323.83;  182.200;   40.600;    0.000;141.60000
 323.85;  119.200;   10.700;    0.000;108.50000
 323.87;  126.400;  -28.000;    0.000;154.40000
 323.89;   99.300;  -61.300;    0.000;160.60000
 323.91;  118.400;  -57.000;    0.000;175.40000
 323.93;  164.900;  -28.800;    0.000;193.70000
 323.94;  131.600;  -57.100;    0.000;188.70000
 323.96;  178.600;    3.100;    0.000;175.50000
 323.98;  135.600;  -49.300;    0.000;184.90000
 324.00;  145.200;   -1.400;    0.000;146.60000
 324.02;  180.200;    5.100;    0.000;175.10000
 324.04;  180.400;    0.600;    0.000;179.80000
 324.06;   56.100; -104.800;    0.000;160.90000
 324.07;  169.200;  -12.600;    0.000;181.80000
 324.09;  182.500;    1.300;    0.000;181.20000
 324.11;  196.300;  -48.300;    0.000;244.60000
 324.13;  319.100;  -35.300;    0.000;354.40000
 324.15;  438.500;    6.200;    0.000;432.30000
 324.17;  444.000;   15.200;    0.000;428.80000
 324.19;  299.600;  -14.900;    0.000;314.50000
 324.20;  354.400;  -16.200;    0.000;370.60000
 324.22;  270.900;   -6.600;    0.000;277.50000
 324.24;  265.800;   25.300;    0.000;240.50000
 324.26;  271.500;   -4.900;    0.000;276.40000
 324.28;  265.300;  -40.100;    0.000;305.40000
 324.30;  344.000;  -10.300;    0.000;354.30000
 324.32;  301.800;    3.000;    0.000;298.80000
 324.33;  299.200;  -54.800;    0.000;354.00000
 324.35;  466.500;   28.900;    0.000;437.60000
 324.37;  377.100;  -21.700;    0.000;398.80000
 324.39;  420.300;  -28.400;    0.000;448.70000
 324.41;  447.500;  -48.500;    0.000;496.00000
 324.43;  528.400;  -23.900;    0.000;552.30000
 324.45;  616.100;   19.500;    0.000;596.60000
 324.46;  498.900;  -21.100;    0.000;520.00000
 324.48;  375.700;  -60.500;    0.000;436.20000
 324.50;  488.900;  -42.800;    0.000;531.70000
 324.52;  603.700;   39.700;    0.000;564.00000
 324.54;  645.700;   36.400;    0.000;609.30000
 324.56;  835.700;   68.700;    0.000;767.00000
 324.58;  765.100;   24.200;    0.000;740.90000
 324.59;  768.200;   23.000;    0.000;745.20000
 324.61;  793.500;  -41.900;    0.000;835.40000
 324.63;  784.600;  -12.000;    0.000;796.60000
 324.65;  674.000;  -36.100;    0.000;710.10000
 324.67;  661.400;   14.900;    0.000;646.50000
 324.69;  753.600;  -14.200;    0.000;767.80000
 324.71;  918.500;    4.000;    0.000;914.50000
 324.72;  944.300;  -64.000;    0.000;1008.30000
 324.74;  989.800;   19.100;    0.000;970.70000
 324.76; 1023.100;    6.500;    0.000;1016.60000
 324.78; 1183.800;  -45.100;    0.000;1228.90000
 324.80; 1630.100;   22.700;    0.000;1607.40000
 324.82; 1987.300;  -55.200;    0.000;2042.50000
 324.83; 1831.500;   18.700;    0.000;1812.80000
 324.85; 1540.300;  -24.300;    0.000;1564.60000
 324.87; 1508.400;  -37.900;    0.000;1546.30000
 324.89; 1324.800;   -3.400;    0.000;1328.20000
 324.91; 1369.600;   69.000;    0.000;1300.60000
 324.93; 1256.900;  -39.600;    0.000;1296.50000
 324.95; 1094.000;   42.000;    0.000;1052.00000
 324.96; 1070.100;   19.900;    0.000;1050.20000
 324.98; 1235.800;   21.000;    0.000;1214.80000
 325.00; 1106.400;  -42.800;    0.000;1149.20000
 325.02;  978.600;  -41.900;    0.000;1020.50000
 325.04;  904.800;  -56.400;    0.000;961.20000
 325.06; 1021.000;  -33.600;    0.000;1054.60000
 325.07; 1214.400;   -6.600;    0.000;1221.00000
 325.09; 1398.200;   -6.500;    0.000;1404.70000
 325.11; 1668.000;  -27.300;    0.000;1695.30000
 325.13; 1697.300; -102.200;    0.000;1799.50000
 325.15; 1894.900;   24.500;    0.000;1870.40000
 325.17; 2332.800;   68.600;    0.000;2264.20000
 325.19; 3083.000;  -20.500;    0.000;3103.50000
 325.20; 4164.700;  -23.700;    0.000;4188.40000
 325.22; 4870.900;    6.500;    0.000;4864.40000
 325.24; 6283.100;   28.300;    0.000;6254.80000
 325.26;11441.700;  -12.800;    0.000;11454.50000
 325.28;13815.500;   62.000;    0.000;13753.50000
 325.30; 7336.200;   65.700;    0.000;7270.50000
 325.31; 2316.300;  -12.000;    0.000;2328.30000
 325.33; 1245.800;    7.300;    0.000;1238.50000
 325.35; 1017.600;   48.900;    0.000;968.70000
 325.37;  764.600;  -33.300;    0.000;797.90000
 325.39;  813.500;    1.700;    0.000;811.80000
 325.41;  710.300;  -23.200;    0.000;733.50000
 325.42;  659.500;  -31.700;    0.000;691.20000
 325.44;  539.300;  -65.600;    0.000;604.90000
 325.46;  592.000;  -38.100;    0.000;630.10000
 325.48;  616.700;    0.900;    0.000;615.80000
 325.50;  623.200;  -13.600;    0.000;636.80000
 325.52;  552.900;  -38.100;    0.000;591.00000
 325.54;  602.100;    5.700;    0.000;596.40000
 325.55;  624.600;  -43.800;    0.000;668.40000
 325.57;  766.000;   29.000;    0.000;737.00000
 325.59;  758.200;   30.500;    0.000;727.70000
 325.61;  714.400;  -11.500;    0.000;725.90000
 325.63;  830.200;   32.700;    0.000;797.50000
 325.65;  844.900;  -23.900;    0.000;868.80000
 325.66;  765.700;  -88.900;    0.000;854.60000
 325.68;  955.400;  -45.400;    0.000;1000.80000
 325.70;  991.000;   -8.800;    0.000;999.80000
 325.72; 1043.600;    1.100;    0.000;1042.50000
 325.74; 1042.800;  -31.300;    0.000;1074.10000
 325.76; 1130.400;   37.300;    0.000;1093.10000
 325.77; 1087.600;  -27.700;    0.000;1115.30000
 325.79; 1264.700;  -49.100;    0.000;1313.80000
 325.81; 1448.600;  -14.300;    0.000;1462.90000
 325.83; 1668.100;  -14.900;    0.000;1683.00000
 325.85; 2007.500;    8.700;    0.000;1998.80000
 325.87; 2444.100;   10.600;    0.000;2433.50000
 325.88; 2864.900;  -37.800;    0.000;2902.70000
 325.90; 3539.900;  -31.100;    0.000;3571.00000
 325.92; 4628.600;  -11.800;    0.000;4640.40000
 325.94; 6796.400;   23.700;    0.000;6772.70000
 325.96;10813.300;   14.400;    0.000;10798.90000
 325.98;19146.300;   -4.800;    0.000;19151.10000
 325.99;38203.800;  -45.800;    0.000;38249.60000
 326.01;64645.700;   53.000;    0.000;64592.70000
 326.03;64635.400;   12.500;    0.000;64622.90000
 326.05;64645.700;   22.900;    0.000;64622.80000
 326.07;64635.400;   35.800;    0.000;64599.60000
 326.09;64645.700;   -5.800;    0.000;64651.50000
 326.10;64635.400;   -4.300;    0.000;64639.70000
 326.12;64645.700;   46.500;    0.000;64599.20000
 326.14;64635.400;   12.500;    0.000;64622.90000
 326.16;64645.700;  -33.400;    0.000;64679.10000
 326.18;64635.400;  -22.800;    0.000;64658.20000
 326.20;64645.700;   16.300;    0.000;64629.40000
 326.21;64635.400;   17.400;    0.000;64618.00000
 326.23;64645.700;   43.300;    0.000;64602.40000
 326.25;64635.400;  -61.400;    0.000;64696.80000
 326.27;64645.700;   57.600;    0.000;64588.10000
 326.29;64635.400;  -10.500;    0.000;64645.90000
 326.31;64645.700;  -10.900;    0.000;64656.60000
 326.32;64635.400;  -60.000;    0.000;64695.40000
 326.34;64645.700;  -15.400;    0.000;64661.10000
 326.36;64635.400;  -29.500;    0.000;64664.90000
 326.38;64645.700;   14.500;    0.000;64631.20000
 326.40;64635.400; -103.100;    0.000;64738.50000
 326.42;64645.700;    8.700;    0.000;64637.00000
 326.43;64635.400;  -17.100;    0.000;64652.50000
 326.45;64645.700;   12.800;    0.000;64632.90000
 326.47;64635.400;  -50.400;    0.000;64685.80000
 326.49;64645.700;   54.400;    0.000;64591.30000
 326.51;64635.400;  -25.800;    0.000;64661.20000
 326.53;64645.700;   22.800;    0.000;64622.90000
 326.54;64635.400;  -20.100;    0.000;64655.50000
 326.56;64645.700;  -60.200;    0.000;64705.90000
 326.58;64635.400;  -26.100;    0.000;64661.50000
 326.60;63373.100;  -37.100;    0.000;63410.20000
 326.62;64635.400;  -52.000;    0.000;64687.40000
 326.64; 1276.400;   22.400;    0.000;1254.00000
 326.65;59386.300;  -39.300;    0.000;59425.60000
 326.67;  812.800;  -52.900;    0.000;865.70000
 326.69; 1134.500;  -75.200;    0.000;1209.70000
 326.71;  885.100;  -11.600;    0.000;896.70000
 326.73;  956.800;   25.800;    0.000;931.00000
 326.74;  811.600;  -28.800;    0.000;840.40000
 326.76;  869.400;  -69.400;    0.000;938.80000
 326.78;  802.100;  -23.200;    0.000;825.30000
 326.80;  794.700;  -17.900;    0.000;812.60000
 326.82;  762.200;    1.500;    0.000;760.70000
 326.84;  757.500;   -8.400;    0.000;765.90000
 326.85;  874.000;   41.800;    0.000;832.20000
 326.87;  865.900;    0.900;    0.000;865.00000
 326.89;  886.600;   45.400;    0.000;841.20000
 326.91;  878.200;    4.200;    0.000;874.00000
 326.93; 1001.800;   50.100;    0.000;951.70000
 326.95; 1092.400;   30.100;    0.000;1062.30000
 326.96; 1088.600;   22.700;    0.000;1065.90000
 326.98; 1098.500;  -50.100;    0.000;1148.60000
 327.00; 1220.200;  -48.700;    0.000;1268.90000
 327.02; 1281.300;  -18.400;    0.000;1299.70000
 327.04; 1269.100;  -51.400;    0.000;1320.50000
 327.05; 1236.000;  -49.400;    0.000;1285.40000
 327.07; 1190.400;  -36.200;    0.000;1226.60000
 327.09; 1354.800;  -17.000;    0.000;1371.80000
 327.11; 1483.200;   31.000;    0.000;1452.20000
 327.13; 1397.500;    2.700;    0.000;1394.80000
 327.15; 1345.100;    6.300;    0.000;1338.80000
 327.16; 1213.000;   -8.000;    0.000;1221.00000
 327.18; 1240.700;  -13.300;    0.000;1254.00000
 327.20; 1065.400;  -54.100;    0.000;1119.50000
 327.22; 1081.200;   12.600;    0.000;1068.60000
 327.24; 1271.100;    9.800;    0.000;1261.30000
 327.25; 1589.300;   51.000;    0.000;1538.30000
 327.27; 1687.000;   11.800;    0.000;1675.20000
 327.29; 1442.700;  -81.100;    0.000;1523.80000
 327.31; 1274.100;  -15.200;    0.000;1289.30000
 327.33; 1349.700;   59.500;    0.000;1290.20000
 327.35; 1171.500;  -40.900;    0.000;1212.40000
 327.36; 1038.600;   -3.200;    0.000;1041.80000
 327.38; 1044.800;    9.200;    0.000;1035.60000
 327.40; 1116.200;  -19.900;    0.000;1136.10000
 327.42; 1377.400;  -17.700;    0.000;1395.10000
 327.44; 1402.800;  -50.000;    0.000;1452.80000
 327.45; 1129.100;   14.300;    0.000;1114.80000
 327.47;  988.100;   18.300;    0.000;969.80000
 327.49;  930.400;  -80.200;    0.000;1010.60000
 327.51; 1009.400;  -18.700;    0.000;1028.10000
 327.53; 1087.600;  -22.300;    0.000;1109.90000
 327.55; 1021.500;   -4.400;    0.000;1025.90000
 327.56;  772.300; -122.000;    0.000;894.30000
 327.58;  829.400;    2.700;    0.000;826.70000
 327.60;  698.800;  -68.800;    0.000;767.60000
 327.62;  846.800;  -10.100;    0.000;856.90000
 327.64;  904.700;  -40.700;    0.000;945.40000
 327.65;  710.500;  -57.600;    0.000;768.10000
 327.67;  478.500;  -28.200;    0.000;506.70000
 327.69;  487.200;   21.600;    0.000;465.60000
 327.71;  474.500;   16.600;    0.000;457.90000
 327.73;  377.500;  -97.400;    0.000;474.90000
 327.74;  490.900;   11.200;    0.000;479.70000
 327.76;  452.900;  -31.500;    0.000;484.40000
 327.78;  442.000;  -32.500;    0.000;474.50000
 327.80;  508.300;  -12.900;    0.000;521.20000
 327.82;  486.100;  -43.700;    0.000;529.80000
 327.84;  480.800;  -26.300;    0.000;507.10000
 327.85;  353.600;  -66.000;    0.000;419.60000
 327.87;  262.900;  -95.100;    0.000;358.00000
 327.89;  352.100;  -25.600;    0.000;377.70000
 327.91;  417.100;  -20.100;    0.000;437.20000
 327.93;  442.800;   18.200;    0.000;424.60000
 327.94;  310.300;   -2.700;    0.000;313.00000
 327.96;  293.000;  -48.100;    0.000;341.10000
 327.98;  306.400;    1.700;    0.000;304.70000
 328.00;  196.800;  -94.800;    0.000;291.60000
 328.02;  301.900;   24.800;    0.000;277.10000
 328.03;  245.400;  -58.000;    0.000;303.40000
 328.05;  290.100;   35.300;    0.000;254.80000
 328.07;  210.600;  -74.100;    0.000;284.70000
 328.09;  183.300;  -90.400;    0.000;273.70000
 328.11;  271.700;  -88.400;    0.000;360.10000
 328.12;  355.000;   49.500;    0.000;305.50000
 328.14;  189.200;  -42.200;    0.000;231.40000
 328.16;  224.400;    0.000;    0.000;224.40000
 328.18;  188.000;   -0.100;    0.000;188.10000
 328.20;  129.200;  -53.600;    0.000;182.80000
 328.21;  115.300;  -52.200;    0.000;167.50000
 328.23;  151.200;  -13.700;    0.000;164.90000
 328.25;  243.600;   60.900;    0.000;182.70000
 328.27;  133.800;  -52.900;    0.000;186.70000
 328.29;  102.400;  -53.700;    0.000;156.10000
 328.30;  175.900;  -22.000;    0.000;197.90000
 328.32;  181.800;   14.100;    0.000;167.70000
 328.34;  229.200;   83.400;    0.000;145.80000
 328.36;   69.800;  -80.400;    0.000;150.20000
 328.38;   43.000;  -68.600;    0.000;111.60000
 328.40;   86.400;  -35.500;    0.000;121.90000
 328.41;  180.700;   23.200;    0.000;157.50000
 328.43;  192.700;   27.500;    0.000;165.20000
 328.45;  157.500;    9.400;    0.000;148.10000
 328.47;  130.200;   -4.500;    0.000;134.70000
 328.49;  151.100;   28.100;    0.000;123.00000
 328.50;   39.500;  -44.700;    0.000;84.20000
 328.52;   97.800;  -24.900;    0.000;122.70000
 328.54;  122.600;   47.800;    0.000;74.80000
 328.56;  127.100;   30.100;    0.000;97.00000
 328.58;  108.500;   12.800;    0.000;95.70000
 328.59;  169.600;   38.700;    0.000;130.90000
 328.61;   88.400;  -11.600;    0.000;100.00000
 328.63;  113.600;  -21.900;    0.000;135.50000
 328.65;   49.700;  -25.100;    0.000;74.80000
 328.67;  172.700;   73.200;    0.000;99.50000
 328.68;   47.700;  -60.600;    0.000;108.30000
 328.70;   83.700;  -23.200;    0.000;106.90000
 328.72;   79.500;  -27.200;    0.000;106.70000
 328.74;  214.400;  103.000;    0.000;111.40000
 328.76;  181.000;   73.000;    0.000;108.00000
 328.77;  113.200;   -0.800;    0.000;114.00000
 328.79;   62.300;  -49.100;    0.000;111.40000
 328.81;    6.300;  -86.900;    0.000;93.20000
 328.83;   75.000;   -6.300;    0.000;81.30000
 328.85;   35.100;  -68.000;    0.000;103.10000
 328.86;   51.200;  -25.900;    0.000;77.10000
 328.88;    0.000;  -56.100;    0.000;56.10000
 328.90;   65.700;   33.900;    0.000;31.80000
 328.92;   33.600;  -46.900;    0.000;80.50000
 328.93;   72.000;  -23.900;    0.000;95.90000
 328.95;   36.000;  -22.300;    0.000;58.30000
 328.97;   -6.200;  -92.300;    0.000;86.10000
 328.99;   78.400;  -28.200;    0.000;106.60000
 329.01;   54.400;    5.300;    0.000;49.10000
 329.02;   -6.700;  -95.000;    0.000;88.30000
 329.04;   28.000;  -28.400;    0.000;56.40000
 329.06;   46.500;  -11.500;    0.000;58.00000
 329.08;   31.000;  -54.300;    0.000;85.30000
 329.10;   52.400;  -40.600;    0.000;93.00000
 329.11;    1.100;  -40.000;    0.000;41.10000
 329.13;  131.500;   46.300;    0.000;85.20000
 329.15;   70.200;   32.200;    0.000;38.00000
 329.17;   81.500;   25.300;    0.000;56.20000
 329.19;    9.400;  -43.500;    0.000;52.90000
 329.20;   96.300;   47.800;    0.000;48.50000
 329.22;   -9.300; -102.900;    0.000;93.60000
 329.24;   38.200;   -6.000;    0.000;44.20000
 329.26;   16.400;   -1.200;    0.000;17.60000
 329.28;   58.000;  -19.300;    0.000;77.30000
 329.29;   28.500;  -48.700;    0.000;77.20000
 329.31;  -38.200;  -92.700;    0.000;54.50000
 329.33;   65.300;   24.200;    0.000;41.10000
 329.35;  122.500;  113.100;    0.000; 9.40000
 329.37;  -23.300;  -61.000;    0.000;37.70000
 329.38;   36.000;   -7.400;    0.000;43.40000
 329.40;   42.700;   -1.000;    0.000;43.70000
 329.42;   72.900;   15.800;    0.000;57.10000
 329.44;  -15.100;  -52.800;    0.000;37.70000
 329.45;   48.100;   24.100;    0.000;24.00000
 329.47;   68.800;   39.100;    0.000;29.70000
 329.49;  -19.200;  -66.900;    0.000;47.70000
 329.51;   11.700;  -12.700;    0.000;24.40000
 329.53;   34.100;   11.900;    0.000;22.20000
 329.54;   69.300;    9.400;    0.000;59.90000
 329.56;   22.400;  -17.400;    0.000;39.80000
 329.58;   -2.400;  -68.600;    0.000;66.20000
 329.60;   62.100;   14.500;    0.000;47.60000
 329.62;   48.900;  -28.200;    0.000;77.10000
 329.63;  -12.800;  -77.000;    0.000;64.20000
 329.65;  -57.800;  -69.400;    0.000;11.60000
 329.67;  -10.100;  -59.300;    0.000;49.20000
 329.69;   69.000;   18.500;    0.000;50.50000
 329.70;  119.200;   57.800;    0.000;61.40000
 329.72;   97.400;   40.300;    0.000;57.10000
 329.74;   51.400;   10.900;    0.000;40.50000
 329.76;  -28.600;  -73.700;    0.000;45.10000
 329.78;   56.500;   36.100;    0.000;20.40000
 329.79;   61.900;   34.300;    0.000;27.60000
 329.81;   47.200;  -30.500;    0.000;77.70000
 329.83;   33.000;    7.000;    0.000;26.00000
 329.85;   61.800;   11.600;    0.000;50.20000
 329.87;  122.800;   85.100;    0.000;37.70000
 329.88;   39.300;  -29.000;    0.000;68.30000
 329.90;   -2.300;  -22.200;    0.000;19.90000
 329.92;   29.100;  -24.700;    0.000;53.80000
 329.94;  -38.800;  -29.700;    0.000;-9.10000
 329.95;   69.700;    9.800;    0.000;59.90000
 329.97;   30.600;   -6.300;    0.000;36.90000
 329.99;   54.600;   28.800;    0.000;25.80000
 330.01;   -0.600;  -43.400;    0.000;42.80000
 330.03;   57.400;   17.100;    0.000;40.30000
 330.04;  -21.200;  -64.500;    0.000;43.30000
 330.06;   15.600;  -19.000;    0.000;34.60000
 330.08;  -29.300;  -79.700;    0.000;50.40000
 330.10;   11.200;  -19.700;    0.000;30.90000
 330.11;  -21.600;  -82.400;    0.000;60.80000
 330.13;   88.000;   38.900;    0.000;49.10000
 330.15;   62.100;    7.100;    0.000;55.00000
 330.17;   39.300;   27.500;    0.000;11.80000
 330.19;  -26.200;  -26.000;    0.000;-0.20000
 330.20;   24.200;   18.500;    0.000; 5.70000
 330.22;  -74.200;  -96.300;    0.000;22.10000
 330.24;  -17.500;  -33.600;    0.000;16.10000
 330.26;  -50.900;  -50.800;    0.000;-0.10000
 330.27;  -20.100;  -14.500;    0.000;-5.60000
 330.29;  -81.800; -134.600;    0.000;52.80000
 330.31;    3.700;  -45.700;    0.000;49.40000
 330.33;   38.600;   -7.900;    0.000;46.50000
 330.35;   57.000;   38.900;    0.000;18.10000
 330.36;   25.800;   -0.200;    0.000;26.00000
 330.38;    3.800;  -48.000;    0.000;51.80000
 330.40;  -10.200;  -50.200;    0.000;40.00000
 330.42;   23.200;  -12.300;    0.000;35.50000
 330.43;   -4.300;  -47.300;    0.000;43.00000
 330.45;  -39.800;  -82.300;    0.000;42.50000
 330.47;  -22.200;  -51.400;    0.000;29.20000
 330.49;    0.000;  -39.500;    0.000;39.50000
 330.51;   44.500;   22.400;    0.000;22.10000
 330.52;  -21.700;  -31.100;    0.000; 9.40000
 330.54;   11.400;  -17.400;    0.000;28.80000
 330.56;  -38.100;  -66.200;    0.000;28.10000
 330.58;  -29.700;  -78.700;    0.000;49.00000
 330.59;  -27.900;  -40.100;    0.000;12.20000
 330.61;  -27.600;  -40.600;    0.000;13.00000
 330.63;   39.900;   21.100;    0.000;18.80000
 330.65;   24.000;    9.300;    0.000;14.70000
 330.67;   -3.700;  -37.700;    0.000;34.00000
 330.68;  -31.400;  -76.200;    0.000;44.80000
 330.70;   69.600;   29.200;    0.000;40.40000
 330.72;   39.600;   39.400;    0.000; 0.20000
 330.74;  -57.800;  -49.600;    0.000;-8.20000
 330.75;  -19.600;  -76.900;    0.000;57.30000
 330.77;   85.000;   49.400;    0.000;35.60000
 330.79;  -44.500;  -40.900;    0.000;-3.60000
 330.81;   -2.800;   -8.600;    0.000; 5.80000
 330.82;  -31.600;  -36.500;    0.000; 4.90000
 330.84;  -10.200;  -31.600;    0.000;21.40000
 330.86;  -56.100;  -80.100;    0.000;24.00000
 330.88;   -1.500;   16.700;    0.000;-18.20000
 330.90;  -51.400;  -69.900;    0.000;18.50000
 330.91;   40.700;   15.200;    0.000;25.50000
 330.93;  -18.500;  -26.500;    0.000; 8.00000
 330.95;  -38.000;  -23.500;    0.000;-14.50000
 330.97;   -3.700;  -41.800;    0.000;38.10000
 330.98;  -28.900;  -32.200;    0.000; 3.30000
 331.00;  -13.400;  -62.600;    0.000;49.20000
 331.02;  -81.600;  -86.300;    0.000; 4.70000
 331.04;  -55.000;  -80.200;    0.000;25.20000
 331.05;  -55.500;  -85.000;    0.000;29.50000
 331.07;  -23.000;  -21.300;    0.000;-1.70000
 331.09;  -14.400;  -56.800;    0.000;42.40000
 331.11;   18.400;   11.700;    0.000; 6.70000
 331.13;   30.000;   10.300;    0.000;19.70000
 331.14;  -68.900;  -83.700;    0.000;14.80000
 331.16;    9.400;  -30.100;    0.000;39.50000
 331.18;   22.600;  -29.300;    0.000;51.90000
 331.20;    5.600;  -29.400;    0.000;35.00000
 331.21;    8.100;   18.700;    0.000;-10.60000
 331.23;   23.700;  -14.400;    0.000;38.10000
 331.25;  -54.600;  -67.900;    0.000;13.30000
 331.27;   -0.100;  -39.100;    0.000;39.00000
 331.28;  -37.500;  -31.500;    0.000;-6.00000
 331.30;  -17.400;  -45.000;    0.000;27.60000
 331.32;   21.100;    8.600;    0.000;12.50000
 331.34;    5.400;  -17.300;    0.000;22.70000
 331.35;  -17.500;  -64.000;    0.000;46.50000
 331.37;  -17.200;  -78.600;    0.000;61.40000
 331.39;   31.900;   -1.300;    0.000;33.20000
 331.41;   25.900;  -13.600;    0.000;39.50000
 331.43;  -21.800;  -69.600;    0.000;47.80000
 331.44;  -29.700;  -59.300;    0.000;29.60000
 331.46;  -12.300;   -3.200;    0.000;-9.10000
 331.48;  -22.200;  -69.700;    0.000;47.50000
 331.50;   13.200;  -20.900;    0.000;34.10000
 331.51;   77.000;    3.100;    0.000;73.90000
 331.53;   40.200;  -73.300;    0.000;113.50000
 331.55;  207.600;   86.100;    0.000;121.50000
 331.57;   78.500;   18.000;    0.000;60.50000
 331.58;   29.300;  -26.000;    0.000;55.30000
 331.60;  -16.800;  -47.800;    0.000;31.00000
 331.62;    4.100;  -26.000;    0.000;30.10000
 331.64;   -7.300;  -25.900;    0.000;18.60000
 331.65;   39.200;   -1.700;    0.000;40.90000
 331.67;    7.900;  -14.100;    0.000;22.00000
 331.69;    7.400;    5.200;    0.000; 2.20000
 331.71;  -25.300;  -43.700;    0.000;18.40000
 331.72;   30.700;  -46.500;    0.000;77.20000
 331.74;  -35.400;  -42.600;    0.000; 7.20000
 331.76;  -44.500;  -56.900;    0.000;12.40000
 331.78;    0.800;  -14.200;    0.000;15.00000
 331.79;    1.600;   -6.100;    0.000; 7.70000
 331.81;  -27.500;  -82.200;    0.000;54.70000
 331.83;   42.800;    2.500;    0.000;40.30000
 331.85;   -5.500;  -51.000;    0.000;45.50000
 331.86;    6.000;    0.600;    0.000; 5.40000
 331.88;   -5.200;   -2.600;    0.000;-2.60000
 331.90;   63.100;   77.200;    0.000;-14.10000
 331.92;   -1.900;  -30.600;    0.000;28.70000
 331.94;  -39.800;  -70.900;    0.000;31.10000
 331.95;    1.000;   -8.300;    0.000; 9.30000
 331.97;   12.300;   11.800;    0.000; 0.50000
 331.99;   29.700;   49.900;    0.000;-20.20000
 332.01;  -76.200;  -78.100;    0.000; 1.90000
 332.02;  101.300;  103.300;    0.000;-2.00000
 332.04;   39.800;   30.600;    0.000; 9.20000
 332.06;   89.100;   85.700;    0.000; 3.40000
 332.08;    6.300;   -0.200;    0.000; 6.50000
 332.09;  -47.800;  -50.000;    0.000; 2.20000
 332.11;   28.600;    0.900;    0.000;27.70000
 332.13;  -37.300;  -10.000;    0.000;-27.30000
 332.15;  -24.000;  -34.100;    0.000;10.10000
 332.16;  -33.600;  -46.500;    0.000;12.90000
 332.18;  -14.800;  -22.400;    0.000; 7.60000
 332.20;  -23.300;  -20.300;    0.000;-3.00000
 332.22;    0.800;  -39.800;    0.000;40.60000
 332.23;   59.000;    6.700;    0.000;52.30000
 332.25;  -31.300;  -25.300;    0.000;-6.00000
 332.27;  -39.100;  -52.700;    0.000;13.60000
 332.29;  -15.600;  -40.300;    0.000;24.70000
 332.30;   -2.200;  -13.200;    0.000;11.00000
 332.32;   14.600;  -54.400;    0.000;69.00000
 332.34;    2.200;  -12.700;    0.000;14.90000
 332.36;   17.400;    6.100;    0.000;11.30000
 332.37;   32.200;   49.400;    0.000;-17.20000
 332.39;   71.000;   39.900;    0.000;31.10000
 332.41;  -43.900;  -93.100;    0.000;49.20000
 332.43;   -6.100;  -13.400;    0.000; 7.30000
 332.44;  -43.800;  -38.200;    0.000;-5.60000
 332.46;  -21.600;  -29.600;    0.000; 8.00000
 332.48;   10.500;    2.800;    0.000; 7.70000
 332.50;   51.900;   38.500;    0.000;13.40000
 332.51;  -11.900;  -41.400;    0.000;29.50000
 332.53;  -61.000;  -87.200;    0.000;26.20000
 332.55;  -24.700;  -32.400;    0.000; 7.70000
 332.57;   19.900;   13.300;    0.000; 6.60000
 332.58;  -33.800;  -34.400;    0.000; 0.60000
 332.60;   33.600;   24.400;    0.000; 9.20000
 332.62;  -20.700;  -31.700;    0.000;11.00000
 332.64;  143.600;  130.100;    0.000;13.50000
 332.65;  -40.200;  -38.700;    0.000;-1.50000
 332.67;   -3.800;   -9.100;    0.000; 5.30000
 332.69;  -15.400;    8.500;    0.000;-23.90000
 332.70;  -21.500;  -37.400;    0.000;15.90000
 332.72;  -58.300;  -49.600;    0.000;-8.70000
 332.74;   44.600;   27.400;    0.000;17.20000
 332.76;   27.700;   18.200;    0.000; 9.50000
 332.77;  -38.000;  -49.900;    0.000;11.90000
 332.79;  -52.400;  -67.600;    0.000;15.20000
 332.81;  -21.500;  -22.500;    0.000; 1.00000
 332.83;  -21.900;  -28.700;    0.000; 6.80000
 332.84;  -58.100;  -51.400;    0.000;-6.70000
 332.86;  -39.100;  -56.400;    0.000;17.30000
 332.88;  -57.500;  -56.800;    0.000;-0.70000
 332.90;  -30.800;  -27.600;    0.000;-3.20000
 332.91;  -35.900;  -52.300;    0.000;16.40000
 332.93;   36.100;    4.900;    0.000;31.20000
 332.95;  -13.000;  -14.800;    0.000; 1.80000
 332.97;   29.900;   -5.000;    0.000;34.90000
 332.98;  -67.900;  -88.500;    0.000;20.60000
 333.00;  -59.900;  -40.600;    0.000;-19.30000
 333.02;   60.000;   16.800;    0.000;43.20000
 333.04;  -15.500;  -27.300;    0.000;11.80000
 333.05;  -38.900;  -57.500;    0.000;18.60000
 333.07;  -11.100;  -40.600;    0.000;29.50000
 333.09;   50.700;   47.000;    0.000; 3.70000
 333.11;  -11.400;  -14.300;    0.000; 2.90000
 333.12;   44.600;   33.800;    0.000;10.80000
 333.14;   -8.900;  -19.000;    0.000;10.10000
 333.16;  -48.700;  -66.000;    0.000;17.30000
 333.17;  -23.100;  -47.800;    0.000;24.70000
 333.19;  -54.200;  -86.200;    0.000;32.00000
 333.21;    4.800;    6.000;    0.000;-1.20000
 333.23;   25.500;   42.500;    0.000;-17.00000
 333.24;  -21.500;  -49.700;    0.000;28.20000
 333.26;    4.200;  -26.600;    0.000;30.80000
 333.28;   39.800;   17.000;    0.000;22.80000
 333.30;   34.400;  -31.000;    0.000;65.40000
 333.31;  -28.700;  -75.700;    0.000;47.00000
 333.33;  -16.800;  -42.500;    0.000;25.70000
 333.35;  -20.300;  -54.500;    0.000;34.20000
 333.37;  -37.200;  -33.300;    0.000;-3.90000
 333.38;  -82.200; -108.000;    0.000;25.80000
 333.40;  -42.900;  -28.500;    0.000;-14.40000
 333.42;  -71.300;  -56.600;    0.000;-14.70000
 333.44;  -17.200;  -31.400;    0.000;14.20000
 333.45;   -2.200;  -16.800;    0.000;14.60000
 333.47;   67.800;   57.000;    0.000;10.80000
 333.49;    7.200;    6.400;    0.000; 0.80000
 333.50;   32.700;   27.100;    0.000; 5.60000
 333.52;  -24.700;  -43.600;    0.000;18.90000
 333.54;  -38.900;  -85.800;    0.000;46.90000
 333.56;  -35.200;  -36.000;    0.000; 0.80000
 333.57;    6.700;   -0.500;    0.000; 7.20000
 333.59;  -16.400;  -42.200;    0.000;25.80000
 333.61;  -11.400;  -20.800;    0.000; 9.40000
 333.63;  -55.000;  -81.500;    0.000;26.50000
 333.64;  -60.400;  -57.300;    0.000;-3.10000
 333.66;   32.400;   29.700;    0.000; 2.70000
 333.68;   -5.100;    3.800;    0.000;-8.90000
 333.70;  -25.600;  -42.300;    0.000;16.70000
 333.71;  -47.800;  -87.400;    0.000;39.60000
 333.73;  -42.200;  -59.700;    0.000;17.50000
 333.75;   -9.500;  -22.700;    0.000;13.20000
 333.76;   -9.900;  -28.300;    0.000;18.40000
 333.78;  -83.600;  -86.700;    0.000; 3.10000
 333.80;  -29.400;  -52.900;    0.000;23.50000
 333.82;   15.200;   20.100;    0.000;-4.90000
 333.83;   30.400;    6.100;    0.000;24.30000
 333.85;  -20.700;  -34.100;    0.000;13.40000
 333.87;  -39.100;  -61.800;    0.000;22.70000
 333.89;  -19.300;  -46.400;    0.000;27.10000
 333.90;  -55.400;  -28.600;    0.000;-26.80000
 333.92;   20.300;  -19.100;    0.000;39.40000
 333.94;    1.800;  -24.900;    0.000;26.70000
 333.95;  -14.000;  -12.600;    0.000;-1.40000
 333.97;  -41.400;  -61.800;    0.000;20.40000
 333.99;  -45.200;  -56.900;    0.000;11.70000
 334.01;    4.800;   25.400;    0.000;-20.60000
 334.02;    1.600;  -17.000;    0.000;18.60000
 334.04;  -37.300;  -43.100;    0.000; 5.80000
 334.06;    8.500;  -12.600;    0.000;21.10000
 334.08;  -39.700;  -30.400;    0.000;-9.30000
 334.09;   36.800;    9.400;    0.000;27.40000
 334.11;  -36.000;  -67.700;    0.000;31.70000
 334.13;  -12.900;  -15.300;    0.000; 2.40000
 334.14;   -9.000;  -16.900;    0.000; 7.90000
 334.16;  -21.800;  -47.700;    0.000;25.90000
 334.18;  -37.400;  -31.600;    0.000;-5.80000
 334.20;    8.500;   -7.500;    0.000;16.00000
 334.21;   12.300;  -12.000;    0.000;24.30000
 334.23;   21.100;   -3.500;    0.000;24.60000
 334.25;   19.200;   -8.900;    0.000;28.10000
 334.26;  -19.500;  -18.000;    0.000;-1.50000
 334.28;  -33.400;  -55.100;    0.000;21.70000
 334.30;  -29.400;  -64.600;    0.000;35.20000
 334.32;  -46.800;  -48.500;    0.000; 1.70000
 334.33;  -48.400;  -74.300;    0.000;25.90000
 334.35;  -25.600;  -28.900;    0.000; 3.30000
 334.37;  -31.000;  -36.100;    0.000; 5.10000
 334.39;  -48.700;  -40.600;    0.000;-8.10000
 334.40;  -44.600;  -18.700;    0.000;-25.90000
 334.42;  -30.200;  -20.400;    0.000;-9.80000
 334.44;  -36.100;  -76.300;    0.000;40.20000
 334.45;   -4.000;  -18.400;    0.000;14.40000
 334.47;  -50.300;  -31.600;    0.000;-18.70000
 334.49;   -8.400;   -1.900;    0.000;-6.50000
 334.51;   25.600;   15.600;    0.000;10.00000
 334.52;   46.300;   31.500;    0.000;14.80000
 334.54;  -46.000;  -75.700;    0.000;29.70000
 334.56;   29.800;   43.300;    0.000;-13.50000
 334.57;   42.900;    5.900;    0.000;37.00000
 334.59;   21.000;   17.900;    0.000; 3.10000
 334.61;  -72.900;  -77.400;    0.000; 4.50000
 334.63;  -29.800;  -58.800;    0.000;29.00000
 334.64;   63.000;   50.900;    0.000;12.10000
 334.66;    1.600;   17.600;    0.000;-16.00000
 334.68;   20.200;   14.000;    0.000; 6.20000
 334.69;  -74.200; -111.700;    0.000;37.50000
 334.71;   31.000;    0.700;    0.000;30.30000
 334.73;  -77.500;  -73.500;    0.000;-4.00000
 334.75;   -6.200;  -45.900;    0.000;39.70000
 334.76;  -44.000;  -75.500;    0.000;31.50000
 334.78;  135.200;  109.900;    0.000;25.30000
 334.80;  -34.500;  -60.500;    0.000;26.00000
 334.81;   82.000;   94.200;    0.000;-12.20000
 334.83;   -0.500;  -17.300;    0.000;16.80000
 334.85;  -16.900;  -34.700;    0.000;17.80000
 334.87;  -58.000;  -64.000;    0.000; 6.00000
 334.88;    5.600;    3.500;    0.000; 2.10000
 334.90;  -50.300;  -56.300;    0.000; 6.00000
 334.92;  -40.800;  -35.900;    0.000;-4.90000
 334.93;  -22.900;   10.900;    0.000;-33.80000
 334.95;   -4.000;  -34.300;    0.000;30.30000
 334.97;  -11.300;  -15.000;    0.000; 3.70000
 334.99;  -30.500;  -36.400;    0.000; 5.90000
 335.00;    6.400;   -1.700;    0.000; 8.10000
 335.02;  -23.200;  -39.100;    0.000;15.90000
 335.04;   21.200;   11.400;    0.000; 9.80000
 335.05;  -15.800;  -38.700;    0.000;22.90000
 335.07;   14.500;    2.000;    0.000;12.50000
 335.09;  -20.400;  -57.200;    0.000;36.80000
 335.11;  -55.800;  -90.100;    0.000;34.30000
 335.12;  -36.400;  -41.900;    0.000; 5.50000
 335.14;  -16.100;   -2.400;    0.000;-13.70000
 335.16;   11.100;  -11.300;    0.000;22.40000
 335.17;   26.000;   -3.000;    0.000;29.00000
 335.19;    4.400;  -32.800;    0.000;37.20000
 335.21;   82.600;   52.600;    0.000;30.00000
 335.23;  -10.200;  -19.500;    0.000; 9.30000
 335.24;  -35.900;  -38.800;    0.000; 2.90000
 335.26;   25.900;   10.900;    0.000;15.00000
 335.28;   37.100;   52.600;    0.000;-15.50000
 335.29;   94.600;   77.600;    0.000;17.00000
 335.31;  -65.000;  -78.200;    0.000;13.20000
 335.33;  -34.100;  -39.700;    0.000; 5.60000
 335.34;   -8.800;  -35.500;    0.000;26.70000
 335.36;   -3.000;  -36.600;    0.000;33.60000
 335.38;  -26.300;  -60.000;    0.000;33.70000
 335.40;  -26.500;  -58.400;    0.000;31.90000
 335.41;   25.800;  -16.000;    0.000;41.80000
 335.43;   36.400;   27.700;    0.000; 8.70000
 335.45;  -14.600;  -37.100;    0.000;22.50000
 335.46;   65.000;   15.900;    0.000;49.10000
 335.48;  -60.300;  -86.200;    0.000;25.90000
 335.50;    6.300;  -31.000;    0.000;37.30000
 335.52;   69.800;   34.400;    0.000;35.40000
 335.53;   33.500;  -18.100;    0.000;51.60000
 335.55;   30.300;   -1.300;    0.000;31.60000
 335.57;   32.500;   31.500;    0.000; 1.00000
 335.58;   13.600;  -13.700;    0.000;27.30000
 335.60;    2.800;  -34.400;    0.000;37.20000
 335.62;    3.400;   -2.800;    0.000; 6.20000
 335.63;   39.700;   26.400;    0.000;13.30000
 335.65;    3.000;   -3.300;    0.000; 6.30000
 335.67;  -56.900;  -64.500;    0.000; 7.60000
 335.69;  -35.800;  -40.300;    0.000; 4.50000
 335.70;  -11.200;  -32.800;    0.000;21.60000
 335.72;  -28.300;  -38.500;    0.000;10.20000
 335.74;  -28.000;  -35.100;    0.000; 7.10000
 335.75;   11.700;    3.900;    0.000; 7.80000
 335.77;  -76.700;  -69.400;    0.000;-7.30000
 335.79;   -4.100;   -8.400;    0.000; 4.30000
 335.80;  -45.100;  -44.800;    0.000;-0.30000
 335.82;   15.600;   23.700;    0.000;-8.10000
 335.84;   30.800;   24.800;    0.000; 6.00000
 335.86;   -9.000;  -10.100;    0.000; 1.10000
 335.87;  -40.700;  -35.000;    0.000;-5.70000
 335.89;   35.100;   41.500;    0.000;-6.40000
 335.91;   11.400;    3.000;    0.000; 8.40000
 335.92;  -18.100;  -47.300;    0.000;29.20000
 335.94;  -36.900;  -38.200;    0.000; 1.30000
 335.96;  -25.600;  -34.400;    0.000; 8.80000
 335.97;    9.900;   25.400;    0.000;-15.50000
 335.99;   15.800;   -5.900;    0.000;21.70000
 336.01;  -48.300;  -41.200;    0.000;-7.10000
 336.03;  -32.500;  -42.500;    0.000;10.00000
 336.04;   10.300;    4.400;    0.000; 5.90000
 336.06;   32.000;    9.300;    0.000;22.70000
 336.08;  -38.800;  -46.200;    0.000; 7.40000
 336.09;   32.700;    7.400;    0.000;25.30000
 336.11;   -5.000;    3.100;    0.000;-8.10000
 336.13;   32.000;   -3.100;    0.000;35.10000
 336.14;  -22.600;  -11.200;    0.000;-11.40000
 336.16;   -6.800;    1.300;    0.000;-8.10000
 336.18;   10.800;   -3.200;    0.000;14.00000
 336.19;  -67.600;  -60.500;    0.000;-7.10000
 336.21;   -2.300;   16.500;    0.000;-18.80000
 336.23;  -82.400;  -89.300;    0.000; 6.90000
 336.25;    4.300;  -38.000;    0.000;42.30000
 336.26;  -45.800;  -77.700;    0.000;31.90000
 336.28;  -25.000;  -59.200;    0.000;34.20000
 336.30;   -3.700;   -0.300;    0.000;-3.40000
 336.31;  -27.400;  -39.800;    0.000;12.40000
 336.33;   17.500;   -6.400;    0.000;23.90000
 336.35;   -6.400;  -14.400;    0.000; 8.00000
 336.36;   25.800;   -1.100;    0.000;26.90000
 336.38;   10.500;  -11.300;    0.000;21.80000
 336.40;  -72.300;  -86.100;    0.000;13.80000
 336.41;  -26.100;  -14.200;    0.000;-11.90000
 336.43;    1.800;  -17.500;    0.000;19.30000
 336.45;   -5.500;  -21.600;    0.000;16.10000
 336.47;  -11.700;  -10.000;    0.000;-1.70000
 336.48;   -6.200;    6.300;    0.000;-12.50000
 336.50;  -23.900;   -7.500;    0.000;-16.40000
 336.52;   73.900;   50.900;    0.000;23.00000
 336.53;  -26.900;  -26.600;    0.000;-0.30000
 336.55;  -47.600;  -26.600;    0.000;-21.00000
 336.57;  -63.900;  -73.700;    0.000; 9.80000
 336.58;   -2.100;   23.500;    0.000;-25.60000
 336.60;   -6.300;  -17.500;    0.000;11.20000
 336.62;  -52.300;  -67.000;    0.000;14.70000
 336.63;  -89.000;  -63.600;    0.000;-25.40000
 336.65;   15.400;    9.000;    0.000; 6.40000
 336.67;  -35.300;  -41.300;    0.000; 6.00000
 336.68;  -57.200;  -69.400;    0.000;12.20000
 336.70;   -0.600;  -31.000;    0.000;30.40000
 336.72;   21.700;   14.200;    0.000; 7.50000
 336.74;  -52.500;  -40.100;    0.000;-12.40000
 336.75;  -30.400;  -28.800;    0.000;-1.60000
 336.77;  -61.800;  -40.500;    0.000;-21.30000
 336.79;    0.500;  -29.800;    0.000;30.30000
 336.80;  -80.400;  -69.400;    0.000;-11.00000
 336.82;  -61.000;  -60.600;    0.000;-0.40000
 336.84;   36.700;    6.000;    0.000;30.70000
 336.85;    6.200;  -31.900;    0.000;38.10000
 336.87;   60.900;   27.900;    0.000;33.00000
 336.89;    9.200;  -43.000;    0.000;52.20000
 336.90;   25.400;   30.100;    0.000;-4.70000
 336.92;   10.100;   35.000;    0.000;-24.90000
 336.94;  -52.500;  -84.400;    0.000;31.90000
 336.95;  -80.000;  -95.200;    0.000;15.20000
 336.97;  -19.000;  -12.100;    0.000;-6.90000
 336.99;  -17.600;  -41.800;    0.000;24.20000
 337.00;  -32.200;  -56.900;    0.000;24.70000
 337.02;  -36.100;  -47.800;    0.000;11.70000
 337.04;  -56.100;  -29.500;    0.000;-26.60000
 337.06;  107.600;   93.500;    0.000;14.10000
 337.07;  -84.500;  -72.400;    0.000;-12.10000
 337.09;   -1.000;  -17.800;    0.000;16.80000
 337.11;   22.600;   14.500;    0.000; 8.10000
 337.12;  -95.400; -117.300;    0.000;21.90000
 337.14;  -16.600;  -35.300;    0.000;18.70000
 337.16;   49.200;   41.800;    0.000; 7.40000
 337.17;  -44.100;  -71.600;    0.000;27.50000
 337.19;  -19.200;  -22.400;    0.000; 3.20000
 337.21;   19.100;  -25.400;    0.000;44.50000
 337.22;   -7.800;  -39.000;    0.000;31.20000
 337.24;  -56.600;  -36.700;    0.000;-19.90000
 337.26;    2.300;    7.500;    0.000;-5.20000
 337.27;  -24.900;  -46.200;    0.000;21.30000
 337.29;    6.600;   19.400;    0.000;-12.80000
 337.31;   64.400;   37.800;    0.000;26.60000
 337.32;   10.000;  -26.200;    0.000;36.20000
 337.34;   17.000;  -15.900;    0.000;32.90000
 337.36;  -14.700;  -34.500;    0.000;19.80000
 337.37;   38.100;   28.700;    0.000; 9.40000
 337.39;   67.700;   47.400;    0.000;20.30000
 337.41;   26.000;   25.500;    0.000; 0.50000
 337.42;  -68.400; -104.500;    0.000;36.10000
 337.44;   35.700;  -11.600;    0.000;47.30000
 337.46;   10.900;  -14.600;    0.000;25.50000
 337.47;   38.300;   30.200;    0.000; 8.10000
 337.49;    2.100;   -6.800;    0.000; 8.90000
 337.51;    6.300;  -21.100;    0.000;27.40000
 337.53;    1.600;   -5.600;    0.000; 7.20000
 337.54;  -15.000;    4.900;    0.000;-19.90000
 337.56;  -33.600;  -44.600;    0.000;11.00000
 337.58;  -36.200;  -30.400;    0.000;-5.80000
 337.59;    3.900;    2.700;    0.000; 1.20000
 337.61;  -51.300;  -52.100;    0.000; 0.80000
 337.63;   13.000;   -7.400;    0.000;20.40000
 337.64;  -18.200;  -17.800;    0.000;-0.40000
 337.66;   -2.600;   15.200;    0.000;-17.80000
 337.68;  -74.200;  -73.500;    0.000;-0.70000
 337.69;    0.300;  -21.300;    0.000;21.60000
 337.71;   -8.100;  -27.300;    0.000;19.20000
 337.73;    9.900;  -19.200;    0.000;29.10000
 337.74;  -61.400;  -34.500;    0.000;-26.90000
 337.76;   16.700;   -8.000;    0.000;24.70000
 337.78;   25.200;   29.400;    0.000;-4.20000
 337.79;  -43.500;  -46.500;    0.000; 3.00000
 337.81;   97.900;  102.800;    0.000;-4.90000
 337.83;    1.100;   11.800;    0.000;-10.70000
 337.84;  -42.200;  -46.300;    0.000; 4.10000
 337.86;   45.400;   28.500;    0.000;16.90000
 337.88;    5.100;  -23.500;    0.000;28.60000
 337.89;   55.900;   33.700;    0.000;22.20000
 337.91;   35.200;   32.900;    0.000; 2.30000
 337.93;  -28.900;  -32.800;    0.000; 3.90000
 337.94;   27.700;    1.400;    0.000;26.30000
 337.96;   11.500;  -36.500;    0.000;48.00000
 337.98;    1.600;   -3.900;    0.000; 5.50000
 337.99;  -53.400;  -58.700;    0.000; 5.30000
 338.01;   12.200;    4.300;    0.000; 7.90000
 338.03;  -14.700;  -54.400;    0.000;39.70000
 338.04;  -86.700;  -68.100;    0.000;-18.60000
 338.06;   19.500;   14.200;    0.000; 5.30000
 338.08;  -31.600;  -54.700;    0.000;23.10000
 338.09;  -12.900;  -29.000;    0.000;16.10000
 338.11;  -25.800;  -54.400;    0.000;28.60000
 338.13;   59.000;   21.800;    0.000;37.20000
 338.14;    6.800;   11.200;    0.000;-4.40000
 338.16;   48.500;   20.100;    0.000;28.40000
 338.18;  -38.300;  -65.200;    0.000;26.90000
 338.19;    9.100;    2.100;    0.000; 7.00000
 338.21;  -94.600; -112.800;    0.000;18.20000
 338.23;  -10.700;  -14.200;    0.000; 3.50000
 338.24;  -46.300;  -58.700;    0.000;12.40000
 338.26;   10.900;  -22.300;    0.000;33.20000
 338.28;   17.100;   12.600;    0.000; 4.50000
 338.29;  -52.400;  -58.600;    0.000; 6.20000
 338.31;   16.500;  -24.500;    0.000;41.00000
 338.33;   -0.300;  -17.300;    0.000;17.00000
 338.34;  -10.800;  -45.700;    0.000;34.90000
 338.36;   40.900;   14.600;    0.000;26.30000
 338.38;   16.400;  -20.800;    0.000;37.20000
 338.39;  -39.100; -102.600;    0.000;63.50000
 338.41;   84.800;   62.000;    0.000;22.80000
 338.43;  -42.300;  -59.600;    0.000;17.30000
 338.44;  -18.200;  -25.500;    0.000; 7.30000
 338.46;   32.000;   -9.200;    0.000;41.20000
 338.48;  -99.000; -140.000;    0.000;41.00000
 338.49;   -2.400;  -34.800;    0.000;32.40000
 338.51;  -27.800;  -73.000;    0.000;45.20000
 338.53;   75.100;   38.200;    0.000;36.90000
 338.54;  -42.000;  -76.400;    0.000;34.40000
 338.56;   -1.500;  -50.600;    0.000;49.10000
 338.57;   44.000;  -10.300;    0.000;54.30000
 338.59;   81.600;   23.700;    0.000;57.90000
 338.61;   -4.100;  -41.400;    0.000;37.30000
 338.62;   14.500;  -75.200;    0.000;89.70000
 338.64;  -10.900;  -37.800;    0.000;26.90000
 338.66;   17.300;  -19.200;    0.000;36.50000
 338.67;   60.300;   20.600;    0.000;39.70000
 338.69;   77.000;   36.200;    0.000;40.80000
 338.71;  -22.700;  -67.500;    0.000;44.80000
 338.72;   17.200;  -22.600;    0.000;39.80000
 338.74;   70.600;   77.100;    0.000;-6.50000
 338.76;   86.300;    5.600;    0.000;80.70000
 338.77;   25.200;  -57.000;    0.000;82.20000
 338.79;   53.500;   -2.300;    0.000;55.80000
 338.81;   -1.200;  -67.300;    0.000;66.10000
 338.82;   37.600;  -52.500;    0.000;90.10000
 338.84;   77.400;   25.800;    0.000;51.60000
 338.86;   22.800;  -14.600;    0.000;37.40000
 338.87;    3.500;  -45.400;    0.000;48.90000
 338.89;   20.700;  -40.300;    0.000;61.00000
 338.91;   47.500;  -44.200;    0.000;91.70000
 338.92;   76.100;  -10.100;    0.000;86.20000
 338.94;   32.400;  -32.900;    0.000;65.30000
 338.96;   40.200;  -40.400;    0.000;80.60000
 338.97;   44.300;  -16.400;    0.000;60.70000
 338.99;  139.100;   38.400;    0.000;100.70000
 339.01;   51.200;  -57.300;    0.000;108.50000
 339.02;   52.800;  -29.900;    0.000;82.70000
 339.04;  113.100;   10.000;    0.000;103.10000
 339.05;   88.700;   -5.300;    0.000;94.00000
 339.07;   92.300;  -12.300;    0.000;104.60000
 339.09;  123.100;   29.100;    0.000;94.00000
 339.10;    6.300;  -72.700;    0.000;79.00000
 339.12;   -2.600;  -84.200;    0.000;81.60000
 339.14;   82.100;  -24.800;    0.000;106.90000
 339.15;   62.100;   -2.700;    0.000;64.80000
 339.17;   -4.200;  -75.100;    0.000;70.90000
 339.19;   72.200;  -19.400;    0.000;91.60000
 339.20;    3.800;  -98.300;    0.000;102.10000
 339.22;   -0.400;  -70.600;    0.000;70.20000
 339.24;    6.600;  -46.500;    0.000;53.10000
 339.25;  130.300;   51.800;    0.000;78.50000
 339.27;   70.800;   33.600;    0.000;37.20000
 339.29;   31.600;    4.000;    0.000;27.60000
 339.30;   -3.200;  -59.600;    0.000;56.40000
 339.32;   77.500;    4.700;    0.000;72.80000
 339.33;  213.700;   55.300;    0.000;158.40000
 339.35;  113.900;   -3.400;    0.000;117.30000
 339.37;   85.300;   -0.900;    0.000;86.20000
 339.38;   89.700;   -1.800;    0.000;91.50000
 339.40;   37.500;  -29.800;    0.000;67.30000
 339.42;   37.300;   10.900;    0.000;26.40000
 339.43;    4.800;  -55.600;    0.000;60.40000
 339.45;  115.800;   41.800;    0.000;74.00000
 339.47;   31.700;  -19.400;    0.000;51.10000
 339.48;   18.700;  -56.600;    0.000;75.30000
 339.50;   68.100;  -11.900;    0.000;80.00000
 339.52;   -8.400;  -40.100;    0.000;31.70000
 339.53;    6.500;  -40.100;    0.000;46.60000
 339.55;   14.100;  -21.900;    0.000;36.00000
 339.57;   -6.800;  -84.000;    0.000;77.20000
 339.58;    2.200;  -79.800;    0.000;82.00000
 339.60;   49.500;   -4.500;    0.000;54.00000
 339.61;   62.300;   16.200;    0.000;46.10000
 339.63;    9.300;  -40.800;    0.000;50.10000
 339.65;  -30.200;  -69.200;    0.000;39.00000
 339.66;   11.400;   -7.400;    0.000;18.80000
 339.68;   55.500;    8.600;    0.000;46.90000
 339.70;   -3.200;  -52.700;    0.000;49.50000
 339.71;   41.100;  -13.500;    0.000;54.60000
 339.73;  -47.100;  -78.600;    0.000;31.50000
 339.75;  -12.800;  -60.600;    0.000;47.80000
 339.76;   18.100;  -43.200;    0.000;61.30000
 339.78;    7.800;  -29.900;    0.000;37.70000
 339.79;  112.800;   27.200;    0.000;85.60000
 339.81;   -0.300;  -75.500;    0.000;75.20000
 339.83;   44.700;  -26.500;    0.000;71.20000
 339.84;   41.700;   26.300;    0.000;15.40000
 339.86;    6.000;  -62.100;    0.000;68.10000
 339.88;  -11.300;  -56.600;    0.000;45.30000
 339.89;    8.100;  -68.700;    0.000;76.80000
 339.91;   82.600;   21.700;    0.000;60.90000
 339.93;  157.900;   92.100;    0.000;65.80000
 339.94;   79.300;  -28.800;    0.000;108.10000
 339.96;   27.900;  -58.000;    0.000;85.90000
 339.98;  110.100;   64.900;    0.000;45.20000
 339.99;   56.600;  -43.600;    0.000;100.20000
 340.01;   27.700;  -15.600;    0.000;43.30000
 340.02;   14.600;  -36.000;    0.000;50.60000
 340.04;   24.200;  -87.900;    0.000;112.10000
 340.06;   57.700;  -10.500;    0.000;68.20000
 340.07;   33.300;  -37.600;    0.000;70.90000
 340.09;   69.700;  -38.800;    0.000;108.50000
 340.11;   61.000;  -37.000;    0.000;98.00000
 340.12;  104.100;  -55.500;    0.000;159.60000
 340.14;  155.300;  -20.200;    0.000;175.50000
 340.15;  160.500;   13.600;    0.000;146.90000
 340.17;  137.000;  -52.000;    0.000;189.00000
 340.19;  215.400;  -52.200;    0.000;267.60000
 340.20;  348.300;  -26.200;    0.000;374.50000
 340.22;  529.800;  -33.200;    0.000;563.00000
 340.24;  835.800;  -32.400;    0.000;868.20000
 340.25; 1454.700;  -26.800;    0.000;1481.50000
 340.27; 2817.200;  -51.100;    0.000;2868.30000
 340.29; 5583.500;   32.300;    0.000;5551.20000
 340.30;10794.400;  -82.800;    0.000;10877.20000
 340.32;19920.000;  -62.700;    0.000;19982.70000
 340.33;29657.000;  -46.500;    0.000;29703.50000
 340.35;42226.200;  -86.400;    0.000;42312.60000
 340.37;64645.700;   52.500;    0.000;64593.20000
 340.38;64635.400;  -35.100;    0.000;64670.50000
 340.40;64645.700;   -6.800;    0.000;64652.50000
 340.42;54555.500;   51.100;    0.000;54504.40000
 340.43; 9921.900;   -2.100;    0.000;9924.00000
 340.45; 3700.600;  -42.500;    0.000;3743.10000
 340.46; 2155.900;  -25.200;    0.000;2181.10000
 340.48; 1281.100;  -48.100;    0.000;1329.20000
 340.50;  941.800;   -5.900;    0.000;947.70000
 340.51;  738.600;  -43.000;    0.000;781.60000
 340.53;  533.500;  -44.600;    0.000;578.10000
 340.55;  444.400;  -55.800;    0.000;500.20000
 340.56;  419.000;  -10.500;    0.000;429.50000
 340.58;  394.500;  -25.400;    0.000;419.90000
 340.60;  296.200;    2.900;    0.000;293.30000
 340.61;  229.900;  -38.800;    0.000;268.70000
 340.63;  214.000;  -34.000;    0.000;248.00000
 340.64;  263.200;   36.900;    0.000;226.30000
 340.66;  204.700;  -21.900;    0.000;226.60000
 340.68;  172.700;   -8.600;    0.000;181.30000
 340.69;  193.700;   22.900;    0.000;170.80000
 340.71;  148.900;   -7.000;    0.000;155.90000
 340.73;   82.600;  -67.300;    0.000;149.90000
 340.74;   94.300;  -38.000;    0.000;132.30000
 340.76;  114.200;  -41.500;    0.000;155.70000
 340.77;   76.200;  -54.800;    0.000;131.00000
 340.79;   97.900;   12.900;    0.000;85.00000
 340.81;   57.900;  -16.700;    0.000;74.60000
 340.82;  156.600;   34.000;    0.000;122.60000
 340.84;  127.100;  -27.800;    0.000;154.90000
 340.86;   64.600;  -62.100;    0.000;126.70000
 340.87;   84.200;  -34.400;    0.000;118.60000
 340.89;   82.400;  -39.200;    0.000;121.60000
 340.90;   55.700;  -66.100;    0.000;121.80000
 340.92;   65.600;  -37.400;    0.000;103.00000
 340.94;   54.100;  -76.600;    0.000;130.70000
 340.95;   57.600;  -19.400;    0.000;77.00000
 340.97;   23.400;  -92.700;    0.000;116.10000
 340.98;   97.300;    6.100;    0.000;91.20000
 341.00;   37.700;  -45.800;    0.000;83.50000
 341.02;   90.000;    8.000;    0.000;82.00000
 341.03;   38.800;  -39.400;    0.000;78.20000
 341.05;   31.500;  -54.100;    0.000;85.60000
 341.07;   43.500;  -51.100;    0.000;94.60000
 341.08;   28.300;  -45.600;    0.000;73.90000
 341.10;   39.300;    2.900;    0.000;36.40000
 341.11;   24.700;  -20.800;    0.000;45.50000
 341.13;   43.700;  -28.500;    0.000;72.20000
 341.15;   56.200;   -8.800;    0.000;65.00000
 341.16;   97.000;  -19.600;    0.000;116.60000
 341.18;   30.000;  -23.700;    0.000;53.70000
 341.20;   24.500;  -61.300;    0.000;85.80000
 341.21;   21.500;  -28.500;    0.000;50.00000
 341.23;   20.900;  -39.000;    0.000;59.90000
 341.24;   -5.900;  -82.700;    0.000;76.80000
 341.26;   38.600;  -48.000;    0.000;86.60000
 341.28;   76.800;  -14.700;    0.000;91.50000
 341.29;   37.600;  -60.000;    0.000;97.60000
 341.31;   75.500;  -14.800;    0.000;90.30000
 341.32;   74.700;  -37.300;    0.000;112.00000
 341.34;   64.000;  -11.400;    0.000;75.40000
 341.36;   41.400;  -19.400;    0.000;60.80000
 341.37;   17.200;  -58.800;    0.000;76.00000
 341.39;   28.400;  -75.300;    0.000;103.70000
 341.41;   64.400;  -71.400;    0.000;135.80000
 341.42;   25.600;  -76.500;    0.000;102.10000
 341.44;  170.900;   46.300;    0.000;124.60000
 341.45;   58.300;  -11.800;    0.000;70.10000
 341.47;   33.000;  -79.000;    0.000;112.00000
 341.49;   75.900;  -44.900;    0.000;120.80000
 341.50;   22.100;  -59.200;    0.000;81.30000
 341.52;   33.000;  -46.200;    0.000;79.20000
 341.53;   59.700;  -18.900;    0.000;78.60000
 341.55;  163.000;   85.700;    0.000;77.30000
 341.57;   96.700;  -10.400;    0.000;107.10000
 341.58;   69.400;  -40.100;    0.000;109.50000
 341.60;   36.400;  -90.700;    0.000;127.10000
 341.61;   48.200;  -42.700;    0.000;90.90000
 341.63;   96.900;   -0.400;    0.000;97.30000
 341.65;   63.200;  -36.300;    0.000;99.50000
 341.66;   67.700;  -26.100;    0.000;93.80000
 341.68;   31.200;  -39.000;    0.000;70.20000
 341.70;   75.800;  -11.100;    0.000;86.90000
 341.71;   50.600;  -47.800;    0.000;98.40000
 341.73;   59.300;   -9.800;    0.000;69.10000
 341.74;   76.900;  -36.700;    0.000;113.60000
 341.76;  127.000;   15.300;    0.000;111.70000
 341.78;  105.900;   43.900;    0.000;62.00000
 341.79;   14.700;  -49.500;    0.000;64.20000
 341.81;   94.800;   22.200;    0.000;72.60000
 341.82;   62.400;   -2.400;    0.000;64.80000
 341.84;   15.300;  -41.800;    0.000;57.10000
 341.86;  -21.200; -106.900;    0.000;85.70000
 341.87;  105.500;   21.600;    0.000;83.90000
 341.89;   64.000;   30.300;    0.000;33.70000
 341.90;   59.400;   12.100;    0.000;47.30000
 341.92;   77.300;   12.900;    0.000;64.40000
 341.94;   32.400;  -50.200;    0.000;82.60000
 341.95;   13.800;  -47.500;    0.000;61.30000
 341.97;   51.200;  -55.300;    0.000;106.50000
 341.98;   -2.700;  -72.600;    0.000;69.90000
 342.00;   62.900;  -14.000;    0.000;76.90000
 342.02;   69.500;   17.300;    0.000;52.20000
 342.03;   41.200;    2.000;    0.000;39.20000
 342.05;    6.400;  -39.700;    0.000;46.10000
 342.06;  -15.600;  -72.900;    0.000;57.30000
 342.08;   47.100;   10.900;    0.000;36.20000
 342.10;   29.600;  -20.600;    0.000;50.20000
 342.11;   30.800;    1.000;    0.000;29.80000
 342.13;  -30.500;  -88.100;    0.000;57.60000
 342.15;   27.200;  -17.900;    0.000;45.10000
 342.16;    7.100;  -66.900;    0.000;74.00000
 342.18;   14.500;  -13.200;    0.000;27.70000
 342.19;   19.900;  -10.300;    0.000;30.20000
 342.21;   89.200;   12.000;    0.000;77.20000
 342.23;   -6.000;  -68.400;    0.000;62.40000
 342.24;   46.500;   24.200;    0.000;22.30000
 342.26;  -10.300;  -31.000;    0.000;20.70000
 342.27;   72.600;    9.600;    0.000;63.00000
 342.29;  -61.900;  -96.300;    0.000;34.40000
 342.31;   90.200;   38.100;    0.000;52.10000
 342.32;   12.600;  -23.800;    0.000;36.40000
 342.34;   -1.700;  -28.100;    0.000;26.40000
 342.35;  -42.800;  -58.900;    0.000;16.10000
 342.37;  -11.500;  -47.500;    0.000;36.00000
 342.39;   21.800;  -23.200;    0.000;45.00000
 342.40;  -27.300;  -66.000;    0.000;38.70000
 342.42;   43.000;   10.000;    0.000;33.00000
 342.43;   84.700;   78.200;    0.000; 6.50000
 342.45;   13.100;   24.500;    0.000;-11.40000
 342.46;   72.400;   60.600;    0.000;11.80000
 342.48;  -52.300;  -76.200;    0.000;23.90000
 342.50;   56.600;   44.800;    0.000;11.80000
 342.51;  -17.600;  -38.500;    0.000;20.90000
 342.53;  -31.000;  -40.000;    0.000; 9.00000
 342.54;  -36.000;  -56.200;    0.000;20.20000
 342.56;   16.500;   -7.000;    0.000;23.50000
 342.58;  -24.600;  -16.800;    0.000;-7.80000
 342.59;   -1.600;  -24.400;    0.000;22.80000
 342.61;    7.800;  -39.600;    0.000;47.40000
 342.62;   -6.200;  -40.500;    0.000;34.30000
 342.64;  -42.100;  -69.700;    0.000;27.60000
 342.66;  -28.100;  -56.000;    0.000;27.90000
 342.67;  -31.300;  -42.600;    0.000;11.30000
 342.69;  -28.600;  -22.100;    0.000;-6.50000
 342.70;   82.300;   20.400;    0.000;61.90000
 342.72;    5.500;  -26.200;    0.000;31.70000
 342.74;  -63.400;  -63.900;    0.000; 0.50000
 342.75;   38.300;   25.400;    0.000;12.90000
 342.77;   13.000;  -24.500;    0.000;37.50000
 342.78;   -9.700;  -60.300;    0.000;50.60000
 342.80;  -45.300;  -59.300;    0.000;14.00000
 342.82;  -32.200;  -62.700;    0.000;30.50000
 342.83;  -29.100;  -45.400;    0.000;16.30000
 342.85;    5.500;  -27.400;    0.000;32.90000
 342.86;   84.500;   41.500;    0.000;43.00000
 342.88;   49.900;    7.500;    0.000;42.40000
 342.90;    7.100;  -35.200;    0.000;42.30000
 342.91;  -24.300;  -64.400;    0.000;40.10000
 342.93;   14.300;  -14.000;    0.000;28.30000
 342.94;  -15.000;  -12.300;    0.000;-2.70000
 342.96;  -37.400;  -73.000;    0.000;35.60000
 342.97;  -41.000;  -45.400;    0.000; 4.40000
 342.99;   15.200;   -1.100;    0.000;16.30000
 343.01;   36.300;  -25.500;    0.000;61.80000
 343.02;  -28.600;  -36.700;    0.000; 8.10000
 343.04;   17.500;  -24.100;    0.000;41.60000
 343.05;   15.700;   -0.400;    0.000;16.10000
 343.07;  -16.800;  -18.300;    0.000; 1.50000
 343.09;  -37.500;  -62.800;    0.000;25.30000
 343.10;  -30.800;  -45.700;    0.000;14.90000
 343.12;   -5.000;  -26.100;    0.000;21.10000
 343.13;   35.700;   20.300;    0.000;15.40000
 343.15;  -29.700;  -56.500;    0.000;26.80000
 343.17;   34.400;   27.300;    0.000; 7.10000
 343.18;  -16.900;  -16.500;    0.000;-0.40000
 343.20;  -29.800;  -51.800;    0.000;22.00000
 343.21;  -43.200;  -38.600;    0.000;-4.60000
 343.23;   52.000;  -17.400;    0.000;69.40000
 343.24;   -9.300;   -5.600;    0.000;-3.70000
 343.26;  -53.200;  -87.200;    0.000;34.00000
 343.28;  -14.500;  -16.100;    0.000; 1.60000
 343.29;  -11.700;  -46.800;    0.000;35.10000
 343.31;   51.200;   34.800;    0.000;16.40000
 343.32;   11.300;   15.900;    0.000;-4.60000
 343.34;  -60.700;  -64.200;    0.000; 3.50000
 343.36;  -19.500;  -40.000;    0.000;20.50000
 343.37;  -67.300;  -88.300;    0.000;21.00000
 343.39;    7.300;   -1.900;    0.000; 9.20000
 343.40;   14.100;  -10.700;    0.000;24.80000
 343.42;  -26.400;  -25.900;    0.000;-0.50000
 343.43;  -48.300;  -66.300;    0.000;18.00000
 343.45;   50.100;   31.600;    0.000;18.50000
 343.47;  -10.900;  -45.800;    0.000;34.90000
 343.48;   18.200;  -11.600;    0.000;29.80000
 343.50;   11.800;  -41.400;    0.000;53.20000
 343.51;   38.600;   -7.300;    0.000;45.90000
 343.53;  -67.900;  -92.600;    0.000;24.70000
 343.54;    7.300;   -9.200;    0.000;16.50000
 343.56;   11.100;  -42.700;    0.000;53.80000
 343.58;   -2.100;  -22.200;    0.000;20.10000
 343.59;  -25.000;  -42.400;    0.000;17.40000
 343.61;  -14.000;  -36.900;    0.000;22.90000
 343.62;    7.800;  -35.300;    0.000;43.10000
 343.64;   53.600;    4.300;    0.000;49.30000
 343.66;  -33.500;  -39.400;    0.000; 5.90000
 343.67;    6.400;  -17.300;    0.000;23.70000
 343.69;    5.300;   -7.800;    0.000;13.10000
 343.70;   25.900;   12.900;    0.000;13.00000
 343.72;   41.700;   26.200;    0.000;15.50000
 343.73;    6.800;  -37.000;    0.000;43.80000
 343.75;   30.500;   24.300;    0.000; 6.20000
 343.77;   19.500;  -26.900;    0.000;46.40000
 343.78;  -64.300;  -78.000;    0.000;13.70000
 343.80;  -50.400;  -64.400;    0.000;14.00000
 343.81;  -15.600;  -63.900;    0.000;48.30000
 343.83;   21.700;   13.000;    0.000; 8.70000
 343.84;    8.600;  -18.600;    0.000;27.20000
 343.86;   51.500;   22.800;    0.000;28.70000
 343.88;   52.400;   59.800;    0.000;-7.40000
 343.89;  -20.100;  -33.100;    0.000;13.00000
 343.91;   32.600;    8.600;    0.000;24.00000
 343.92;   -2.200;  -59.900;    0.000;57.70000
 343.94;   14.800;  -17.600;    0.000;32.40000
 343.95;   49.700;   -6.100;    0.000;55.80000
 343.97;  -65.600; -106.300;    0.000;40.70000
 343.99;  -40.800;  -70.200;    0.000;29.40000
 344.00;  -10.000;  -19.900;    0.000; 9.90000
 344.02;   24.800;  -11.700;    0.000;36.50000
 344.03;    3.000;  -38.100;    0.000;41.10000
 344.05;  -21.600;  -56.400;    0.000;34.80000
 344.06;  -40.400;  -42.500;    0.000; 2.10000
 344.08;   44.500;   39.900;    0.000; 4.60000
 344.10;   -0.900;  -40.000;    0.000;39.10000
 344.11;  -10.400;   -7.600;    0.000;-2.80000
 344.13;   10.800;  -15.000;    0.000;25.80000
 344.14;   74.100;   29.200;    0.000;44.90000
 344.16;  -62.600;  -66.400;    0.000; 3.80000
 344.17;   91.800;   43.300;    0.000;48.50000
 344.19;  -34.900;  -44.400;    0.000; 9.50000
 344.21;    2.700;  -32.200;    0.000;34.90000
 344.22;  -26.400;  -27.800;    0.000; 1.40000
 344.24;    2.700;  -18.400;    0.000;21.10000
 344.25;  -31.000;  -64.200;    0.000;33.20000
 344.27;    7.600;   -3.600;    0.000;11.20000
 344.28;  -50.800;  -80.100;    0.000;29.30000
 344.30;   -4.500;  -24.800;    0.000;20.30000
 344.32;   52.900;   39.200;    0.000;13.70000
 344.33;   11.600;  -10.500;    0.000;22.10000
 344.35;  -14.800;  -19.200;    0.000; 4.40000
 344.36;   39.600;  -16.100;    0.000;55.70000
 344.38;  -13.100;  -18.900;    0.000; 5.80000
 344.39;   59.400;   -4.200;    0.000;63.60000
 344.41;   63.100;   32.200;    0.000;30.90000
 344.43;   -9.500;  -53.300;    0.000;43.80000
 344.44;   34.200;  -12.600;    0.000;46.80000
 344.46;  -30.800;  -57.800;    0.000;27.00000
 344.47;  -13.000;  -26.900;    0.000;13.90000
 344.49;   51.800;   36.900;    0.000;14.90000
 344.50;  -13.300;  -63.000;    0.000;49.70000
 344.52;   90.200;   55.800;    0.000;34.40000
 344.53;   12.900;  -27.600;    0.000;40.50000
 344.55;  126.500;   86.900;    0.000;39.60000
 344.57;   74.300;   46.300;    0.000;28.00000
 344.58;  -46.400;  -84.900;    0.000;38.50000
 344.60;   70.000;   29.200;    0.000;40.80000
 344.61;   41.200;   -0.500;    0.000;41.70000
 344.63;   78.000;   26.100;    0.000;51.90000
 344.64;  134.100;   55.100;    0.000;79.00000
 344.66;   59.000;   14.200;    0.000;44.80000
 344.67;   57.600;   10.500;    0.000;47.10000
 344.69;   50.200;    7.800;    0.000;42.40000
 344.71;   16.300;  -41.200;    0.000;57.50000
 344.72;  -27.800;  -74.800;    0.000;47.00000
 344.74;   54.000;   -0.900;    0.000;54.90000
 344.75;   99.400;   51.700;    0.000;47.70000
 344.77;    7.400;  -54.100;    0.000;61.50000
 344.78;   37.700;   -1.400;    0.000;39.10000
 344.80;   66.100;  -11.700;    0.000;77.80000
 344.82;   35.600;    3.000;    0.000;32.60000
 344.83;   74.800;   -3.600;    0.000;78.40000
 344.85;   59.200;  -28.600;    0.000;87.80000
 344.86;   32.200;  -24.000;    0.000;56.20000
 344.88;   12.200;  -42.100;    0.000;54.30000
 344.89;   59.000;   -9.000;    0.000;68.00000
 344.91;  -14.400;  -84.900;    0.000;70.50000
 344.92;   88.900;    9.600;    0.000;79.30000
 344.94;   39.600;  -52.300;    0.000;91.90000
 344.96;   58.700;   -9.300;    0.000;68.00000
 344.97;   43.900;  -28.000;    0.000;71.90000
 344.99;  120.300;   58.600;    0.000;61.70000
 345.00;  159.300;   59.500;    0.000;99.80000
 345.02;  157.000;   58.900;    0.000;98.10000
 345.03;  -14.600;  -71.700;    0.000;57.10000
 345.05;   58.700;  -69.900;    0.000;128.60000
 345.06;   97.900;    3.900;    0.000;94.00000
 345.08;    3.000; -121.000;    0.000;124.00000
 345.10;    3.800;  -74.300;    0.000;78.10000
 345.11;   23.800;  -77.400;    0.000;101.20000
 345.13;   74.800;  -47.900;    0.000;122.70000
 345.14;   77.900;  -47.900;    0.000;125.80000
 345.16;   12.700; -130.700;    0.000;143.40000
 345.17;  134.900;  -22.100;    0.000;157.00000
 345.19;   95.600;  -18.100;    0.000;113.70000
 345.20;   91.200;  -44.300;    0.000;135.50000
 345.22;  125.500;  -10.500;    0.000;136.00000
 345.23;  189.000;   -0.700;    0.000;189.70000
 345.25;  149.300;  -20.900;    0.000;170.20000
 345.27;  169.700;  -26.200;    0.000;195.90000
 345.28;  141.500;   -1.700;    0.000;143.20000
 345.30;  134.700;  -36.500;    0.000;171.20000
 345.31;  193.900;   20.600;    0.000;173.30000
 345.33;  218.500;   55.800;    0.000;162.70000
 345.34;   80.900;  -48.200;    0.000;129.10000
 345.36;  109.100;  -36.200;    0.000;145.30000
 345.37;  133.200;  -83.500;    0.000;216.70000
 345.39;  169.600;  -18.500;    0.000;188.10000
 345.41;  203.000;   23.600;    0.000;179.40000
 345.42;  124.000;  -23.200;    0.000;147.20000
 345.44;  101.600;  -76.800;    0.000;178.40000
 345.45;  164.900;  -55.800;    0.000;220.70000
 345.47;  119.900;  -37.100;    0.000;157.00000
 345.48;  118.100;  -33.100;    0.000;151.20000
 345.50;   98.600;  -10.100;    0.000;108.70000
 345.51;   80.300;  -68.700;    0.000;149.00000
 345.53;  161.400;   16.800;    0.000;144.60000
 345.54;  195.900;   -1.500;    0.000;197.40000
 345.56;  149.100;    0.800;    0.000;148.30000
 345.58;  151.600;  -38.100;    0.000;189.70000
 345.59;   97.000;  -96.200;    0.000;193.20000
 345.61;  129.000;  -41.200;    0.000;170.20000
 345.62;   76.600;  -93.400;    0.000;170.00000
 345.64;   77.200;  -47.900;    0.000;125.10000
 345.65;  142.300;   -8.000;    0.000;150.30000
 345.67;  120.800;  -31.800;    0.000;152.60000
 345.68;   90.900;   -9.300;    0.000;100.20000
 345.70;   84.000;  -54.300;    0.000;138.30000
 345.71;   60.800;  -84.700;    0.000;145.50000
 345.73;  150.900;  -16.000;    0.000;166.90000
 345.75;   89.400;  -70.200;    0.000;159.60000
 345.76;  245.200;  120.000;    0.000;125.20000
 345.78;   72.900;  -69.500;    0.000;142.40000
 345.79;   63.900;  -41.700;    0.000;105.60000
 345.81;  125.600;   29.100;    0.000;96.50000
 345.82;  108.900;  -19.000;    0.000;127.90000
 345.84;  139.600;   18.500;    0.000;121.10000
 345.85;   37.600;  -57.100;    0.000;94.70000
 345.87;   72.000;  -10.100;    0.000;82.10000
 345.88;   69.900;  -47.300;    0.000;117.20000
 345.90;  101.500;  -13.100;    0.000;114.60000
 345.91;   44.400;  -48.200;    0.000;92.60000
 345.93;   11.200;  -19.700;    0.000;30.90000
 345.95;   59.900;  -41.700;    0.000;101.60000
 345.96;   73.500;    3.900;    0.000;69.60000
 345.98;   42.000;  -40.800;    0.000;82.80000
 345.99;   52.600;  -27.200;    0.000;79.80000
 346.01;   94.600;    5.500;    0.000;89.10000
 346.02;   34.000;  -49.800;    0.000;83.80000
 346.04;  102.700;   14.600;    0.000;88.10000
 346.05;   10.900;  -41.100;    0.000;52.00000
 346.07;   36.000;  -28.800;    0.000;64.80000
 346.08;   41.100;  -69.300;    0.000;110.40000
 346.10;   46.000;  -16.600;    0.000;62.60000
 346.11;   85.100;  -29.900;    0.000;115.00000
 346.13;   30.100;  -63.600;    0.000;93.70000
 346.15;  112.100;   20.300;    0.000;91.80000
 346.16;   67.600;  -45.800;    0.000;113.40000
 346.18;   94.200;    3.800;    0.000;90.40000
 346.19;   50.200;  -69.700;    0.000;119.90000
 346.21;   99.600;   -7.100;    0.000;106.70000
 346.22;   56.100;  -51.900;    0.000;108.00000
 346.24;   70.200;  -45.200;    0.000;115.40000
 346.25;  121.600;  -13.000;    0.000;134.60000
 346.27;   84.400;  -36.400;    0.000;120.80000
 346.28;   97.600;  -48.300;    0.000;145.90000
 346.30;   47.400;  -70.900;    0.000;118.30000
 346.31;  121.600;  -26.800;    0.000;148.40000
 346.33;  104.200;  -16.100;    0.000;120.30000
 346.34;  133.500;  -26.700;    0.000;160.20000
 346.36;  145.500;  -29.600;    0.000;175.10000
 346.38;  253.300;   28.100;    0.000;225.20000
 346.39;  217.800;  -25.400;    0.000;243.20000
 346.41;  318.000;   46.100;    0.000;271.90000
 346.42;  222.500;  -60.100;    0.000;282.60000
 346.44;  366.700;    9.800;    0.000;356.90000
 346.45;  365.800;  -27.900;    0.000;393.70000
 346.47;  500.600;  -87.800;    0.000;588.40000
 346.48;  725.800;  -16.500;    0.000;742.30000
 346.50; 1106.700;  -18.000;    0.000;1124.70000
 346.51; 1834.800;  -25.800;    0.000;1860.60000
 346.53; 3202.700; -107.100;    0.000;3309.80000
 346.54; 6013.100;   17.700;    0.000;5995.40000
 346.56;11438.500;   24.800;    0.000;11413.70000
 346.57;21552.300;  -29.700;    0.000;21582.00000
 346.59;33680.600;  -24.000;    0.000;33704.60000
 346.60;47583.400;    1.500;    0.000;47581.90000
 346.62;64645.700;   59.200;    0.000;64586.50000
 346.64;64635.400;  -37.500;    0.000;64672.90000
 346.65;64645.700;  -27.900;    0.000;64673.60000
 346.67;64635.400;  -12.000;    0.000;64647.40000
 346.68;64645.700;   45.500;    0.000;64600.20000
 346.70;44909.200;  -17.600;    0.000;44926.80000
 346.71;15130.500;   42.900;    0.000;15087.60000
 346.73;21647.400;  -33.500;    0.000;21680.90000
 346.74;28690.500;   -2.600;    0.000;28693.10000
 346.76;41990.500;   -6.000;    0.000;41996.50000
 346.77;64645.700;  -26.100;    0.000;64671.80000
 346.79;64635.400;  -10.400;    0.000;64645.80000
 346.80;64645.700;  -14.000;    0.000;64659.70000
 346.82;44251.200;  -48.100;    0.000;44299.30000
 346.83; 8745.500;   26.600;    0.000;8718.90000
 346.85; 3898.100; -105.000;    0.000;4003.10000
 346.86; 2360.300;  -74.100;    0.000;2434.40000
 346.88; 1633.500;   -3.500;    0.000;1637.00000
 346.89; 1144.100;    5.900;    0.000;1138.20000
 346.91; 1024.700;  -20.400;    0.000;1045.10000
 346.92;  793.900;  -54.800;    0.000;848.70000
 346.94;  683.600;  -37.700;    0.000;721.30000
 346.96;  572.100;  -19.800;    0.000;591.90000
 346.97;  569.200;   -4.500;    0.000;573.70000
 346.99;  478.000;   28.900;    0.000;449.10000
 347.00;  394.400;  -68.000;    0.000;462.40000
 347.02;  378.000;    4.700;    0.000;373.30000
 347.03;  357.100;  -16.700;    0.000;373.80000
 347.05;  311.400;  -23.400;    0.000;334.80000
 347.06;  254.400;  -98.200;    0.000;352.60000
 347.08;  241.500;  -38.100;    0.000;279.60000
 347.09;  377.900;   49.500;    0.000;328.40000
 347.11;  166.700;  -63.700;    0.000;230.40000
 347.12;  169.100;  -80.800;    0.000;249.90000
 347.14;  186.400;  -91.100;    0.000;277.50000
 347.15;  256.800;   30.000;    0.000;226.80000
 347.17;  128.800;  -63.900;    0.000;192.70000
 347.18;  195.700;  -14.000;    0.000;209.70000
 347.20;  191.700;  -32.700;    0.000;224.40000
 347.21;  221.500;   17.900;    0.000;203.60000
 347.23;  241.600;   31.400;    0.000;210.20000
 347.24;  173.700;   -9.300;    0.000;183.00000
 347.26;  164.800;   23.000;    0.000;141.80000
 347.27;  129.000;  -19.200;    0.000;148.20000
 347.29;  177.400;   49.300;    0.000;128.10000
 347.30;  176.800;    5.700;    0.000;171.10000
 347.32;  128.400;   25.100;    0.000;103.30000
 347.33;   83.200;  -97.600;    0.000;180.80000
 347.35;  195.000;   16.700;    0.000;178.30000
 347.36;  151.600;  -28.600;    0.000;180.20000
 347.38;  181.800;   11.100;    0.000;170.70000
 347.40;  125.300;  -50.900;    0.000;176.20000
 347.41;  185.000;   19.900;    0.000;165.10000
 347.43;  161.200;   -5.700;    0.000;166.90000
 347.44;   96.700;  -57.600;    0.000;154.30000
 347.46;   63.300;  -90.300;    0.000;153.60000
 347.47;   94.300;  -65.700;    0.000;160.00000
 347.49;  124.400;  -11.300;    0.000;135.70000
 347.50;   94.900;  -41.200;    0.000;136.10000
 347.52;  151.000;  -20.100;    0.000;171.10000
 347.53;  104.100;  -73.000;    0.000;177.10000
 347.55;   90.600;  -30.400;    0.000;121.00000
 347.56;  203.500;   52.500;    0.000;151.00000
 347.58;  102.300;  -26.600;    0.000;128.90000
 347.59;   88.700;  -59.000;    0.000;147.70000
 347.61;  157.300;  -30.600;    0.000;187.90000
 347.62;  154.900;  -50.900;    0.000;205.80000
 347.64;  155.300;  -32.700;    0.000;188.00000
 347.65;  123.000;   -8.600;    0.000;131.60000
 347.67;  119.100;  -66.700;    0.000;185.80000
 347.68;  107.200;  -67.700;    0.000;174.90000
 347.70;  161.300;  -54.100;    0.000;215.40000
 347.71;  155.000;  -44.000;    0.000;199.00000
 347.73;  168.600;  -47.200;    0.000;215.80000
 347.74;  169.200;   25.200;    0.000;144.00000
 347.76;  173.500;    1.000;    0.000;172.50000
 347.77;  122.600;  -48.200;    0.000;170.80000
 347.79;  162.200;  -32.800;    0.000;195.00000
 347.80;  122.100;   -5.700;    0.000;127.80000
 347.82;  180.200;  -21.300;    0.000;201.50000
 347.83;  220.400;   23.200;    0.000;197.20000
 347.85;  192.800;  -36.400;    0.000;229.20000
 347.86;  163.300;   -8.000;    0.000;171.30000
 347.88;  118.000;  -82.400;    0.000;200.40000
 347.89;  168.100;  -16.500;    0.000;184.60000
 347.91;  217.700;   27.000;    0.000;190.70000
 347.92;  144.900;  -29.900;    0.000;174.80000
 347.94;  192.300;    9.700;    0.000;182.60000
 347.95;  198.000;   62.600;    0.000;135.40000
 347.97;   82.300;  -82.700;    0.000;165.00000
 347.98;  126.900;  -28.900;    0.000;155.80000
 348.00;  123.100;  -49.400;    0.000;172.50000
 348.01;  152.500;  -41.100;    0.000;193.60000
 348.03;  139.600;  -76.900;    0.000;216.50000
 348.04;  120.300;  -59.200;    0.000;179.50000
 348.06;   40.900;  -90.700;    0.000;131.60000
 348.07;  116.700;  -34.200;    0.000;150.90000
 348.09;   96.600;  -78.600;    0.000;175.20000
 348.10;  129.800;  -75.500;    0.000;205.30000
 348.12;  136.900;  -36.400;    0.000;173.30000
 348.13;  134.000;    7.000;    0.000;127.00000
 348.15;  118.900;  -42.900;    0.000;161.80000
 348.16;   54.800;  -97.300;    0.000;152.10000
 348.18;  123.800;  -11.500;    0.000;135.30000
 348.19;   88.900;  -70.600;    0.000;159.50000
 348.21;  153.100;    6.600;    0.000;146.50000
 348.22;  109.700;  -36.200;    0.000;145.90000
 348.24;  111.900;    8.400;    0.000;103.50000
 348.25;  131.900;  -41.000;    0.000;172.90000
 348.27;  122.100;    8.600;    0.000;113.50000
 348.28;   58.300;  -41.700;    0.000;100.00000
 348.30;   11.700;  -81.200;    0.000;92.90000
 348.31;   50.200;  -29.300;    0.000;79.50000
 348.33;   90.600;   12.200;    0.000;78.40000
 348.34;   55.200;  -47.700;    0.000;102.90000
 348.36;  106.400;  -34.600;    0.000;141.00000
 348.37;   49.800;  -16.100;    0.000;65.90000
 348.39;   95.300;    6.400;    0.000;88.90000
 348.40;    9.300;  -94.600;    0.000;103.90000
 348.42;   44.200;  -29.800;    0.000;74.00000
 348.43;   31.900;  -45.700;    0.000;77.60000
 348.45;  131.700;   44.400;    0.000;87.30000
 348.46;   90.000;    8.500;    0.000;81.50000
 348.48;   16.400;  -58.200;    0.000;74.60000
 348.49;   82.300;   21.000;    0.000;61.30000
 348.51;   11.700;  -45.500;    0.000;57.20000
 348.52;   35.400;  -37.400;    0.000;72.80000
 348.54;   25.400;  -47.300;    0.000;72.70000
 348.55;   22.500;  -49.600;    0.000;72.10000
 348.57;   63.100;  -34.600;    0.000;97.70000
 348.58;   75.200;   -2.100;    0.000;77.30000
 348.60;   36.500;  -63.000;    0.000;99.50000
 348.61;   76.600;   24.200;    0.000;52.40000
 348.63;  -48.700;  -99.000;    0.000;50.30000
 348.64;    0.900;  -52.200;    0.000;53.10000
 348.66;   18.200;  -50.900;    0.000;69.10000
 348.67;   45.700;  -14.400;    0.000;60.10000
 348.69;    7.300;  -26.500;    0.000;33.80000
 348.70;  110.400;   22.600;    0.000;87.80000
 348.72;   57.600;   -1.500;    0.000;59.10000
 348.73;    4.300;  -53.900;    0.000;58.20000
 348.75;    8.700;  -40.700;    0.000;49.40000
 348.76;   11.600;  -42.800;    0.000;54.40000
 348.78;   96.300;   15.800;    0.000;80.50000
 348.79;   70.000;   -0.600;    0.000;70.60000
 348.81;    1.000;  -89.500;    0.000;90.50000
 348.82;   19.200;   -8.700;    0.000;27.90000
 348.84;    9.200;  -56.000;    0.000;65.20000
 348.85;   17.000;   16.500;    0.000; 0.50000
 348.87;  -36.600;  -59.300;    0.000;22.70000
 348.88;  -26.400;  -48.000;    0.000;21.60000
 348.90;  -33.000;  -76.600;    0.000;43.60000
 348.91;    1.000;  -54.500;    0.000;55.50000
 348.92;   -1.100;  -45.600;    0.000;44.50000
 348.94;  -21.500;  -51.500;    0.000;30.00000
 348.95;  -34.200;  -63.700;    0.000;29.50000
 348.97;   -1.600;  -26.500;    0.000;24.90000
 348.98;  -14.100;  -65.100;    0.000;51.00000
 349.00;  -36.600;  -50.300;    0.000;13.70000
 349.01;    3.100;  -14.900;    0.000;18.00000
 349.03;    7.000;  -42.400;    0.000;49.40000
 349.04;  -61.400;  -95.900;    0.000;34.50000
 349.06;  -27.400;  -57.700;    0.000;30.30000
 349.07;  -12.600;  -37.100;    0.000;24.50000
 349.09;  -35.800;  -58.000;    0.000;22.20000
 349.10;  -25.900;  -30.700;    0.000; 4.80000
 349.12;  -59.700;  -68.000;    0.000; 8.30000
 349.13;    5.500;  -41.300;    0.000;46.80000
 349.15;   23.900;  -19.400;    0.000;43.30000
 349.16;   12.100;  -35.600;    0.000;47.70000
 349.18;   97.200;   48.700;    0.000;48.50000
 349.19;   34.500;    5.400;    0.000;29.10000
 349.21;   31.600;    3.500;    0.000;28.10000
 349.22;   52.500;   21.700;    0.000;30.80000
 349.24;    3.000;  -59.900;    0.000;62.90000
 349.25;   -5.800;  -57.000;    0.000;51.20000
 349.27;    4.500;  -42.800;    0.000;47.30000
 349.28;   23.500;  -31.200;    0.000;54.70000
 349.30;   27.900;   -9.600;    0.000;37.50000
 349.31;   -8.700;   -7.200;    0.000;-1.50000
 349.33;   30.000;   28.100;    0.000; 1.90000
 349.34;   -1.200;  -31.400;    0.000;30.20000
 349.35;   65.900;   33.200;    0.000;32.70000
 349.37;   17.700;   -4.800;    0.000;22.50000
 349.38;   27.300;  -17.300;    0.000;44.60000
 349.40;  -22.900;  -60.500;    0.000;37.60000
 349.41;  -33.400;   -9.000;    0.000;-24.40000
 349.43;   -2.400;  -14.200;    0.000;11.80000
 349.44;   -1.900;  -44.200;    0.000;42.30000
 349.46;    7.200;  -16.300;    0.000;23.50000
 349.47;   37.000;   19.000;    0.000;18.00000
 349.49;  -15.500;  -39.200;    0.000;23.70000
 349.50;   16.700;  -32.500;    0.000;49.20000
 349.52;   69.900;    9.400;    0.000;60.50000
 349.53;  -23.900;  -39.400;    0.000;15.50000
 349.55;    1.600;  -13.200;    0.000;14.80000
 349.56;   28.100;  -18.000;    0.000;46.10000
 349.58;  -15.900;  -63.100;    0.000;47.20000
 349.59;   24.200;   18.600;    0.000; 5.60000
 349.61;    2.000;  -28.100;    0.000;30.10000
 349.62;   -3.900;  -76.300;    0.000;72.40000
 349.63;  -49.900;  -42.600;    0.000;-7.30000
 349.65;   33.100;   16.800;    0.000;16.30000
 349.66;   23.200;  -20.400;    0.000;43.60000
 349.68;  -53.600;  -54.700;    0.000; 1.10000
 349.69;  -47.800;  -61.100;    0.000;13.30000
 349.71;   51.100;  -22.200;    0.000;73.30000
 349.72;  -41.100;  -44.100;    0.000; 3.00000
 349.74;  -15.300;  -28.500;    0.000;13.20000
 349.75;    2.200;  -48.500;    0.000;50.70000
 349.77;  -84.800;  -82.400;    0.000;-2.40000
 349.78;   -7.500;  -68.300;    0.000;60.80000
 349.80;  -34.200;  -39.900;    0.000; 5.70000
 349.81;  -40.700;  -48.800;    0.000; 8.10000
 349.83;   41.900;    2.100;    0.000;39.80000
 349.84;   -5.600;  -14.200;    0.000; 8.60000
 349.86;   40.800;   -9.700;    0.000;50.50000
 349.87;  -85.200;  -90.300;    0.000; 5.10000
 349.88;   -3.800;  -25.900;    0.000;22.10000
 349.90;  -33.300;  -52.500;    0.000;19.20000
 349.91;   84.800;   21.900;    0.000;62.90000
 349.93;   35.400;  -21.500;    0.000;56.90000
 349.94;   56.200;  -81.700;    0.000;137.90000
 349.96;  128.400;  -50.400;    0.000;178.80000
 349.97;  186.300;  -53.400;    0.000;239.70000
 349.99;  281.000;  -40.100;    0.000;321.10000
 350.00;  561.900;  -84.400;    0.000;646.30000
 350.02;  925.400;   31.100;    0.000;894.30000
 350.03;  682.100;  -24.700;    0.000;706.80000
 350.05;  187.400;  -94.200;    0.000;281.60000
 350.06;  107.900;  -15.900;    0.000;123.80000
 350.08;  -32.000;  -69.700;    0.000;37.70000
 350.09;  -31.700;  -84.000;    0.000;52.30000
 350.10;  -70.300;  -97.600;    0.000;27.30000
 350.12;   -5.600;  -12.100;    0.000; 6.50000
 350.13;  -14.800;  -14.800;    0.000; 0.00000
 350.15;   10.400;  -18.100;    0.000;28.50000
 350.16;  -91.100;  -69.100;    0.000;-22.00000
 350.18;  -70.300;  -94.600;    0.000;24.30000
 350.19;  -17.000;  -30.200;    0.000;13.20000
 350.21;   14.600;   18.600;    0.000;-4.00000
 350.22;   -5.000;  -27.800;    0.000;22.80000
 350.24;  -25.600;  -81.100;    0.000;55.50000
 350.25; -103.700;  -98.800;    0.000;-4.90000
 350.27;  -33.100;  -62.500;    0.000;29.40000
 350.28;   -9.300;  -17.300;    0.000; 8.00000
 350.29;   20.700;   -4.800;    0.000;25.50000
 350.31;    3.700;   -1.000;    0.000; 4.70000
 350.32;  -44.300;  -46.300;    0.000; 2.00000
 350.34;  -81.000;  -97.300;    0.000;16.30000
 350.35;  -43.100;  -45.100;    0.000; 2.00000
 350.37;  -85.800;  -70.200;    0.000;-15.60000
 350.38;   13.500;  -44.100;    0.000;57.60000
 350.40;    6.400;  -22.800;    0.000;29.20000
 350.41;   21.300;   -5.300;    0.000;26.60000
 350.43;   25.100;   16.300;    0.000; 8.80000
 350.44;   -3.200;  -35.300;    0.000;32.10000
 350.46;  -11.200;  -14.000;    0.000; 2.80000
 350.47;    4.900;   -5.400;    0.000;10.30000
 350.48;   28.400;  -23.600;    0.000;52.00000
 350.50;    2.300;  -20.500;    0.000;22.80000
 350.51;  -23.500;  -39.300;    0.000;15.80000
 350.53;    0.700;   -1.800;    0.000; 2.50000
 350.54;  -90.000; -110.800;    0.000;20.80000
 350.56;   72.800;   58.000;    0.000;14.80000
 350.57; -102.400; -150.600;    0.000;48.20000
 350.59;   -4.100;    4.400;    0.000;-8.50000
 350.60;  -26.800;  -37.800;    0.000;11.00000
 350.62;  -44.400;  -48.900;    0.000; 4.50000
 350.63;  -15.500;  -46.100;    0.000;30.60000
 350.64;  -37.400;  -54.300;    0.000;16.90000
 350.66;  -17.800;  -42.900;    0.000;25.10000
 350.67;   45.800;   31.600;    0.000;14.20000
 350.69;  -53.800;  -82.300;    0.000;28.50000
 350.70;    0.100;  -46.100;    0.000;46.20000
 350.72;   15.400;  -18.500;    0.000;33.90000
 350.73;  -17.900;  -33.400;    0.000;15.50000
 350.75;  -29.500;  -48.400;    0.000;18.90000
 350.76;   24.800;   51.400;    0.000;-26.60000
 350.78;  -13.800;    6.700;    0.000;-20.50000
 350.79;   43.000;   34.800;    0.000; 8.20000
 350.80;  -26.100;  -37.100;    0.000;11.00000
 350.82;  -27.100;  -54.800;    0.000;27.70000
 350.83;  -39.300;  -32.100;    0.000;-7.20000
 350.85;  -43.900;  -26.100;    0.000;-17.80000
 350.86;  -30.600;  -45.900;    0.000;15.30000
 350.88;   16.900;  -12.200;    0.000;29.10000
 350.89;   41.400;   39.800;    0.000; 1.60000
 350.91;   24.300;   24.300;    0.000; 0.00000
 350.92;  -65.500; -111.800;    0.000;46.30000
 350.93;  -11.600;  -29.200;    0.000;17.60000
 350.95;  -47.900;  -59.900;    0.000;12.00000
 350.96;   35.800;   35.200;    0.000; 0.60000
 350.98;   15.300;    6.200;    0.000; 9.10000
 350.99;  -12.900;  -17.200;    0.000; 4.30000
 351.01;  -48.500;  -56.200;    0.000; 7.70000
 351.02;   15.700;    5.900;    0.000; 9.80000
 351.04;  -36.500;  -38.900;    0.000; 2.40000
 351.05;  -53.700;  -75.800;    0.000;22.10000
 351.07;  -31.500;  -29.100;    0.000;-2.40000
 351.08;  -50.400;  -53.600;    0.000; 3.20000
 351.09;  -94.400;  -96.300;    0.000; 1.90000
 351.11;  -80.300;  -89.900;    0.000; 9.60000
 351.12;  -47.200;  -55.100;    0.000; 7.90000
 351.14;  -14.500;  -10.800;    0.000;-3.70000
 351.15;  -21.200;  -24.100;    0.000; 2.90000
 351.17;  -51.800;  -56.700;    0.000; 4.90000
 351.18;  -26.400;  -23.300;    0.000;-3.10000
 351.20;  -19.800;  -21.400;    0.000; 1.60000
 351.21;  -28.200;  -42.100;    0.000;13.90000
 351.22;  -32.300;  -32.500;    0.000; 0.20000
 351.24;  -18.300;  -26.800;    0.000; 8.50000
 351.25;   -9.200;  -33.300;    0.000;24.10000
 351.27;  -15.300;   -8.200;    0.000;-7.10000
 351.28;  -30.100;  -17.500;    0.000;-12.60000
 351.30;   -8.200;  -28.400;    0.000;20.20000
 351.31;   15.600;   -2.200;    0.000;17.80000
 351.33;   -1.800;    0.800;    0.000;-2.60000
 351.34;   -8.200;  -39.600;    0.000;31.40000
 351.35;   22.300;   10.500;    0.000;11.80000
 351.37;   31.200;   22.100;    0.000; 9.10000
 351.38;  -38.700;  -38.600;    0.000;-0.10000
 351.40;   26.300;   -2.400;    0.000;28.70000
 351.41;    9.800;   24.700;    0.000;-14.90000
 351.43;  -26.400;  -56.500;    0.000;30.10000
 351.44;  -21.100;  -19.900;    0.000;-1.20000
 351.45;  -34.100;  -58.600;    0.000;24.50000
 351.47;    5.800;   -5.600;    0.000;11.40000
 351.48;    6.800;    0.100;    0.000; 6.70000
 351.50;  -60.600;  -85.900;    0.000;25.30000
 351.51;   47.200;   42.000;    0.000; 5.20000
 351.53;   -5.300;  -23.600;    0.000;18.30000
 351.54;  -36.300;  -25.700;    0.000;-10.60000
 351.56;  -76.800;  -97.000;    0.000;20.20000
 351.57;  -40.800;  -29.500;    0.000;-11.30000
 351.58;   -1.700;  -35.700;    0.000;34.00000
 351.60;  -20.000;  -36.400;    0.000;16.40000
 351.61;  -62.300;  -74.900;    0.000;12.60000
 351.63;  -33.900;  -69.900;    0.000;36.00000
 351.64;  -24.200;  -35.900;    0.000;11.70000
 351.66;   13.800;   -0.900;    0.000;14.70000
 351.67;  -53.000;  -63.100;    0.000;10.10000
 351.68;  -24.400;  -54.600;    0.000;30.20000
 351.70;  -36.400;  -75.600;    0.000;39.20000
 351.71;  -17.000;  -56.400;    0.000;39.40000
 351.73;   16.700;   12.800;    0.000; 3.90000
 351.74;  -37.100;  -45.800;    0.000; 8.70000
 351.76;  -19.500;  -22.500;    0.000; 3.00000
 351.77;   29.500;   49.000;    0.000;-19.50000
 351.78;  -24.500;  -48.700;    0.000;24.20000
 351.80;    9.500;   13.100;    0.000;-3.60000
 351.81;   45.200;   56.100;    0.000;-10.90000
 351.83;  -37.200;  -41.500;    0.000; 4.30000
 351.84;   12.000;    6.500;    0.000; 5.50000
 351.86;   -7.500;   13.900;    0.000;-21.40000
 351.87;  -15.300;  -47.000;    0.000;31.70000
 351.89;   11.300;   -2.600;    0.000;13.90000
 351.90;   -6.700;   13.800;    0.000;-20.50000
 351.91;  -34.600;  -28.700;    0.000;-5.90000
 351.93;  -23.400;  -24.600;    0.000; 1.20000
 351.94;  -19.200;  -30.900;    0.000;11.70000
 351.96;    4.100;   -3.700;    0.000; 7.80000
 351.97;    5.900;    4.900;    0.000; 1.00000
 351.99;  -45.800;  -64.400;    0.000;18.60000
 352.00;   22.400;   16.400;    0.000; 6.00000
 352.01;  -16.100;    2.100;    0.000;-18.20000
 352.03;    4.400;  -25.000;    0.000;29.40000
 352.04;   36.200;   34.600;    0.000; 1.60000
 352.06;  -27.300;  -35.300;    0.000; 8.00000
 352.07;  -84.400;  -84.900;    0.000; 0.50000
 352.09;  -21.200;  -15.300;    0.000;-5.90000
 352.10;  -80.500;  -86.500;    0.000; 6.00000
 352.11;  -24.800;  -54.700;    0.000;29.90000
 352.13;  -29.600;  -72.900;    0.000;43.30000
 352.14;  -24.700;  -40.100;    0.000;15.40000
 352.16;   18.200;    9.600;    0.000; 8.60000
 352.17;  -15.100;  -15.100;    0.000; 0.00000
 352.18;  -11.000;  -47.100;    0.000;36.10000
 352.20;   39.100;   24.000;    0.000;15.10000
 352.21;  -16.500;  -47.300;    0.000;30.80000
 352.23;    2.900;  -16.600;    0.000;19.50000
 352.24;  -43.000;  -81.200;    0.000;38.20000
 352.26;  -25.900;  -54.600;    0.000;28.70000
 352.27;  -10.800;    5.200;    0.000;-16.00000
 352.28;  -37.100;  -51.000;    0.000;13.90000
 352.30;  -75.500;  -71.300;    0.000;-4.20000
 352.31;   33.900;    7.200;    0.000;26.70000
 352.33;  -36.900;  -50.200;    0.000;13.30000
 352.34;   58.800;   41.100;    0.000;17.70000
 352.36;  -66.900;  -83.600;    0.000;16.70000
 352.37;    8.400;   -2.500;    0.000;10.90000
 352.38;   21.300;   27.300;    0.000;-6.00000
 352.40;   19.800;  -13.400;    0.000;33.20000
 352.41;    6.100;   -9.000;    0.000;15.10000
 352.43;   12.200;    9.700;    0.000; 2.50000
 352.44;  -26.700;  -34.000;    0.000; 7.30000
 352.46;   24.400;    2.100;    0.000;22.30000
 352.47;   36.300;    9.700;    0.000;26.60000
 352.48;    7.700;    3.100;    0.000; 4.60000
 352.50;  -19.800;  -35.600;    0.000;15.80000
 352.51;   43.100;   42.900;    0.000; 0.20000
 352.53;  -24.900;  -32.000;    0.000; 7.10000
 352.54;  -10.700;  -39.200;    0.000;28.50000
 352.55;   25.800;   19.800;    0.000; 6.00000
 352.57;  -10.200;  -20.800;    0.000;10.60000
 352.58;  -46.400;  -52.400;    0.000; 6.00000
 352.60;   12.700;  -25.300;    0.000;38.00000
 352.61;   10.500;    2.100;    0.000; 8.40000
 352.63;  -37.100;  -17.100;    0.000;-20.00000
 352.64;   -8.500;  -22.400;    0.000;13.90000
 352.65;  -70.500;  -62.700;    0.000;-7.80000
 352.67;  -70.700; -108.200;    0.000;37.50000
 352.68;  -31.700;  -60.000;    0.000;28.30000
 352.70;  -50.800;  -50.400;    0.000;-0.40000
 352.71;  -16.100;  -16.300;    0.000; 0.20000
 352.72;   36.600;   -8.700;    0.000;45.30000
 352.74;  -13.700;   13.900;    0.000;-27.60000
 352.75;  -28.200;  -22.000;    0.000;-6.20000
 352.77;   -2.700;    3.200;    0.000;-5.90000
 352.78;  -79.600;  -87.800;    0.000; 8.20000
 352.79;    4.600;   10.400;    0.000;-5.80000
 352.81;  -30.500;  -64.100;    0.000;33.60000
 352.82;   14.400;  -19.100;    0.000;33.50000
 352.84;  -52.500;  -77.100;    0.000;24.60000
 352.85;  -51.900;  -42.500;    0.000;-9.40000
 352.87;  -22.600;  -31.100;    0.000; 8.50000
 352.88;  -10.100;  -39.900;    0.000;29.80000
 352.89;  -53.400;  -36.600;    0.000;-16.80000
 352.91;  -14.900;   -5.000;    0.000;-9.90000
 352.92;  -17.800;  -36.500;    0.000;18.70000
 352.94;  -18.500;  -11.200;    0.000;-7.30000
 352.95;  -40.700;  -35.100;    0.000;-5.60000
 352.96;   -0.400;  -43.500;    0.000;43.10000
 352.98;   -2.300;   -2.100;    0.000;-0.20000
 352.99;    5.200;  -16.900;    0.000;22.10000
 353.01;  -70.200;  -93.300;    0.000;23.10000
 353.02;    6.600;  -27.800;    0.000;34.40000
 353.03;  -10.600;  -30.700;    0.000;20.10000
 353.05;  -20.700;  -49.800;    0.000;29.10000
 353.06;  -30.000;  -19.300;    0.000;-10.70000
 353.08;   -3.300;  -32.000;    0.000;28.70000
 353.09;  -51.200;  -57.700;    0.000; 6.50000
 353.11;  -52.000;  -51.300;    0.000;-0.70000
 353.12;  103.700;  108.100;    0.000;-4.40000
 353.13;   18.800;   33.800;    0.000;-15.00000
 353.15;  -29.200;  -60.900;    0.000;31.70000
 353.16;  -19.400;  -39.700;    0.000;20.30000
 353.18;  -48.100;  -65.800;    0.000;17.70000
 353.19;  -66.200;  -92.700;    0.000;26.50000
 353.20;  -19.600;   -6.700;    0.000;-12.90000
 353.22;  -47.500;  -59.200;    0.000;11.70000
 353.23;   -3.600;    4.400;    0.000;-8.00000
 353.25;   32.900;   23.500;    0.000; 9.40000
 353.26;  -52.900;  -94.100;    0.000;41.20000
 353.27;   24.200;   15.300;    0.000; 8.90000
 353.29; -113.900; -121.700;    0.000; 7.80000
 353.30;   32.500;   14.900;    0.000;17.60000
 353.32;  -75.500;  -61.000;    0.000;-14.50000
 353.33;  -24.500;  -28.800;    0.000; 4.30000
 353.34;  -20.100;  -43.200;    0.000;23.10000
 353.36;   22.700;  -11.400;    0.000;34.10000
 353.37;  -27.700;   -3.500;    0.000;-24.20000
 353.39;   -8.900;  -22.600;    0.000;13.70000
 353.40;  -62.200;  -59.100;    0.000;-3.10000
 353.41;   -0.800;  -11.300;    0.000;10.50000
 353.43;  -50.100;  -68.900;    0.000;18.80000
 353.44;  -34.800;  -39.600;    0.000; 4.80000
 353.46;  -20.900;  -42.000;    0.000;21.10000
 353.47;  -19.300;  -38.300;    0.000;19.00000
 353.48;  -20.400;   -7.600;    0.000;-12.80000
 353.50;   -3.400;   -6.700;    0.000; 3.30000
 353.51;  -28.700;  -49.400;    0.000;20.70000
 353.53;   92.200;   86.700;    0.000; 5.50000
 353.54;   -3.700;   -9.900;    0.000; 6.20000
 353.55;  -65.100;  -71.700;    0.000; 6.60000
 353.57;  -21.500;  -26.100;    0.000; 4.60000
 353.58;   12.400;  -13.200;    0.000;25.60000
 353.60;  -33.700;  -48.800;    0.000;15.10000
 353.61;   46.600;    9.100;    0.000;37.50000
 353.62;  -22.200;   -9.900;    0.000;-12.30000
 353.64;   31.400;    8.000;    0.000;23.40000
 353.65;    2.300;  -15.900;    0.000;18.20000
 353.67;   -4.800;  -41.500;    0.000;36.70000
 353.68;  -57.500;  -52.100;    0.000;-5.40000
 353.69;    4.200;  -26.100;    0.000;30.30000
 353.71;   -1.000;   27.100;    0.000;-28.10000
 353.72;  -87.700;  -73.700;    0.000;-14.00000
 353.74;   -1.700;  -25.500;    0.000;23.80000
 353.75;  -15.800;  -46.400;    0.000;30.60000
 353.76;  -27.600;  -20.300;    0.000;-7.30000
 353.78;  -67.600;  -57.700;    0.000;-9.90000
 353.79;  -36.700;  -59.400;    0.000;22.70000
 353.80;   96.300;  108.600;    0.000;-12.30000
 353.82;  -50.700;  -37.500;    0.000;-13.20000
 353.83;  -19.800;  -47.000;    0.000;27.20000
 353.85;  -30.000;  -41.800;    0.000;11.80000
 353.86;  -29.200;  -39.600;    0.000;10.40000
 353.87;  -12.000;  -17.000;    0.000; 5.00000
 353.89;   86.900;   50.400;    0.000;36.50000
 353.90;  -14.500;  -11.900;    0.000;-2.60000
 353.92;  -42.700;  -35.500;    0.000;-7.20000
 353.93;  -51.500;  -64.900;    0.000;13.40000
 353.94;  -80.700;  -79.300;    0.000;-1.40000
 353.96;   76.800;   56.600;    0.000;20.20000
 353.97;   13.800;  -31.900;    0.000;45.70000
 353.99;  -10.200;   -9.300;    0.000;-0.90000
 354.00;  -56.900;  -62.700;    0.000; 5.80000
 354.01;  -13.500;  -14.800;    0.000; 1.30000
 354.03;   -8.200;  -12.900;    0.000; 4.70000
 354.04;  -77.800;  -83.000;    0.000; 5.20000
 354.06;  -95.400;  -98.800;    0.000; 3.40000
 354.07;   61.800;   52.800;    0.000; 9.00000
 354.08;  -27.700;   -8.700;    0.000;-19.00000
 354.10;   20.200;   33.000;    0.000;-12.80000
 354.11;  -62.100;  -58.800;    0.000;-3.30000
 354.12;  -16.600;    6.000;    0.000;-22.60000
 354.14;  -72.900;  -78.500;    0.000; 5.60000
 354.15;   23.600;   10.600;    0.000;13.00000
 354.17;  -36.900;  -29.400;    0.000;-7.50000
 354.18;  -41.700;  -48.800;    0.000; 7.10000
 354.19;   -2.300;  -24.900;    0.000;22.60000
 354.21;  -28.400;  -37.300;    0.000; 8.90000
 354.22;  -51.100;  -72.800;    0.000;21.70000
 354.24;    0.300;   -7.100;    0.000; 7.40000
 354.25;   23.000;   -2.100;    0.000;25.10000
 354.26;  -43.800;  -54.100;    0.000;10.30000
 354.28;    6.500;    5.100;    0.000; 1.40000
 354.29;  -48.200;  -40.200;    0.000;-8.00000
 354.30;  -23.500;  -36.000;    0.000;12.50000
 354.32;   19.200;   26.100;    0.000;-6.90000
 354.33;   15.600;   14.700;    0.000; 0.90000
 354.35; -100.400;  -83.300;    0.000;-17.10000
 354.36;  -18.100;  -16.500;    0.000;-1.60000
 354.37;   -3.500;  -12.300;    0.000; 8.80000
 354.39;  -19.700;  -29.000;    0.000; 9.30000
 354.40;  -16.300;  -43.800;    0.000;27.50000
 354.41;  -11.300;    4.500;    0.000;-15.80000
 354.43;  -66.200;  -82.300;    0.000;16.10000
 354.44;   14.300;  -17.200;    0.000;31.50000
 354.46;  -84.600;  -79.800;    0.000;-4.80000
 354.47;  -49.100;  -64.900;    0.000;15.80000
 354.48;  -49.100;  -62.500;    0.000;13.40000
 354.50;  -28.700;  -19.600;    0.000;-9.10000
 354.51;  -26.600;  -24.500;    0.000;-2.10000
 354.53;   -2.600;  -32.300;    0.000;29.70000
 354.54;  -19.100;  -49.000;    0.000;29.90000
 354.55;  -17.000;  -29.100;    0.000;12.10000
 354.57;   -1.400;   -5.100;    0.000; 3.70000
 354.58;   13.400;   -1.300;    0.000;14.70000
 354.59;   12.300;   20.700;    0.000;-8.40000
 354.61;  -31.500;  -23.600;    0.000;-7.90000
 354.62;   -6.200;   -5.200;    0.000;-1.00000
 354.64;  -12.600;  -33.800;    0.000;21.20000
 354.65;  -65.000;  -52.100;    0.000;-12.90000
 354.66;  -52.700;  -66.700;    0.000;14.00000
 354.68;  -17.600;  -34.400;    0.000;16.80000
 354.69;   43.700;   28.600;    0.000;15.10000
 354.70;   -8.300;  -41.900;    0.000;33.60000
 354.72;  -37.800;  -36.300;    0.000;-1.50000
 354.73;  -59.600;  -51.500;    0.000;-8.10000
 354.75;   32.000;   26.900;    0.000; 5.10000
 354.76;  -38.400;  -60.900;    0.000;22.50000
 354.77;   -2.900;  -38.100;    0.000;35.20000
 354.79;  -12.500;  -19.300;    0.000; 6.80000
 354.80;   68.900;   55.300;    0.000;13.60000
 354.81;  -35.000;  -63.000;    0.000;28.00000
 354.83;   -4.100;   -7.900;    0.000; 3.80000
 354.84; -101.300; -136.600;    0.000;35.30000
 354.86;   59.200;   20.700;    0.000;38.50000
 354.87;  -13.300;  -29.000;    0.000;15.70000
 354.88;  -73.500;  -85.000;    0.000;11.50000
 354.90;  -79.600;  -81.200;    0.000; 1.60000
 354.91;   -8.300;  -33.600;    0.000;25.30000
 354.92;   -8.100;   43.500;    0.000;-51.60000
 354.94;   37.900;   19.800;    0.000;18.10000
 354.95;  -54.400;  -45.700;    0.000;-8.70000
 354.96;  -24.100;  -12.400;    0.000;-11.70000
 354.98;  -29.900;  -58.000;    0.000;28.10000
 354.99;  -16.700;    5.400;    0.000;-22.10000
 355.01;  -84.300; -105.600;    0.000;21.30000
 355.02;   26.200;  -12.400;    0.000;38.60000
 355.03;   66.600;   57.300;    0.000; 9.30000
 355.05;    6.700;  -22.500;    0.000;29.20000
 355.06;    9.900;  -13.200;    0.000;23.10000
 355.07;  -23.700;  -56.700;    0.000;33.00000
 355.09;  -53.200;  -65.400;    0.000;12.20000
 355.10;   -8.700;  -37.700;    0.000;29.00000
 355.12;  -46.400;  -47.300;    0.000; 0.90000
 355.13;  -81.000;  -73.700;    0.000;-7.30000
 355.14;  -70.300;  -92.900;    0.000;22.60000
 355.16;    7.000;    0.200;    0.000; 6.80000
 355.17;  -12.300;  -36.300;    0.000;24.00000
 355.18;    7.600;  -15.500;    0.000;23.10000
 355.20;  -38.700;  -60.500;    0.000;21.80000
 355.21;  -49.400;  -15.100;    0.000;-34.30000
 355.22;  -51.100;  -44.300;    0.000;-6.80000
 355.24;   -2.900;  -29.700;    0.000;26.80000
 355.25;    6.800;    8.100;    0.000;-1.30000
 355.27;  -23.000;  -40.600;    0.000;17.60000
 355.28;   28.700;   35.800;    0.000;-7.10000
 355.29;    2.100;  -19.400;    0.000;21.50000
 355.31;  -78.900;  -81.400;    0.000; 2.50000
 355.32;  -56.500;  -45.100;    0.000;-11.40000
 355.33;  -30.600;   -8.700;    0.000;-21.90000
 355.35;   42.600;   31.000;    0.000;11.60000
 355.36;  -39.600;  -26.800;    0.000;-12.80000
 355.37;  -12.700;  -14.100;    0.000; 1.40000
 355.39;  -22.600;  -50.900;    0.000;28.30000
 355.40;   -3.800;   -5.400;    0.000; 1.60000
 355.42;  -35.000;  -54.200;    0.000;19.20000
 355.43;  -49.600;  -70.000;    0.000;20.40000
 355.44;   19.900;  -16.600;    0.000;36.50000
 355.46;   80.800;   55.800;    0.000;25.00000
 355.47;  -11.800;  -55.200;    0.000;43.40000
 355.48;   82.500;   50.100;    0.000;32.40000
 355.50;  -16.000;  -17.900;    0.000; 1.90000
 355.51;   23.700;  -54.100;    0.000;77.80000
 355.52;   41.600;   -0.600;    0.000;42.20000
 355.54;  -17.400;  -21.100;    0.000; 3.70000
 355.55;  -51.100;  -72.600;    0.000;21.50000
 355.56;   17.100;  -19.200;    0.000;36.30000
 355.58;  -57.900;  -39.700;    0.000;-18.20000
 355.59;   31.300;   36.800;    0.000;-5.50000
 355.61;    1.000;  -15.200;    0.000;16.20000
 355.62;  -50.200;  -38.000;    0.000;-12.20000
 355.63;  -45.200;  -54.900;    0.000; 9.70000
 355.65;  -33.300;  -46.300;    0.000;13.00000
 355.66;  -77.000;  -72.300;    0.000;-4.70000
 355.67;   29.100;   36.900;    0.000;-7.80000
 355.69;   62.500;   21.700;    0.000;40.80000
 355.70;  -62.600;  -61.300;    0.000;-1.30000
 355.71;  -44.000;  -42.500;    0.000;-1.50000
 355.73;   33.000;   49.200;    0.000;-16.20000
 355.74;  -68.800;  -35.400;    0.000;-33.40000
 355.75;   13.600;   18.500;    0.000;-4.90000
 355.77;  -58.300;  -70.600;    0.000;12.30000
 355.78;  -31.800;  -29.600;    0.000;-2.20000
 355.79;  -19.900;  -32.700;    0.000;12.80000
 355.81;  -41.300;  -52.800;    0.000;11.50000
 355.82;  -43.400;  -46.300;    0.000; 2.90000
 355.84;   28.400;   20.500;    0.000; 7.90000
 355.85;   -3.100;   -5.900;    0.000; 2.80000
 355.86;  -85.900;  -84.100;    0.000;-1.80000
 355.88;  -22.200;  -25.400;    0.000; 3.20000
 355.89;   -9.600;   -7.100;    0.000;-2.50000
 355.90;  -50.800;  -63.600;    0.000;12.80000
 355.92;  -58.700;  -22.200;    0.000;-36.50000
 355.93;   -7.800;  -40.500;    0.000;32.70000
 355.94;  -26.700;  -18.400;    0.000;-8.30000
 355.96;  -98.500;  -92.500;    0.000;-6.00000
 355.97;  -25.300;  -46.100;    0.000;20.80000
 355.98;    3.900;  -12.600;    0.000;16.50000
 356.00;   18.000;    3.300;    0.000;14.70000
 356.01;  -75.800;  -61.400;    0.000;-14.40000
 356.02;  -24.300;  -47.600;    0.000;23.30000
 356.04;  -45.300;  -41.700;    0.000;-3.60000
 356.05;    5.400;   -6.300;    0.000;11.70000
 356.06;  -34.400;  -51.600;    0.000;17.20000
 356.08;  -22.400;   -4.700;    0.000;-17.70000
 356.09;  -35.800;  -28.600;    0.000;-7.20000
 356.11;   28.600;  -10.900;    0.000;39.50000
 356.12;  -17.500;  -33.500;    0.000;16.00000
 356.13;    6.700;  -27.900;    0.000;34.60000
 356.15;    7.700;    0.500;    0.000; 7.20000
 356.16;   35.700;   54.900;    0.000;-19.20000
 356.17;  -29.700;  -26.500;    0.000;-3.20000
 356.19;   39.700;   25.700;    0.000;14.00000
 356.20;  -75.400;  -68.300;    0.000;-7.10000
 356.21;  -69.900;  -90.500;    0.000;20.60000
 356.23;  -50.500;  -52.600;    0.000; 2.10000
 356.24;  -87.500;  -97.100;    0.000; 9.60000
 356.25;   -0.700;    6.100;    0.000;-6.80000
 356.27;   13.700;   16.500;    0.000;-2.80000
 356.28;  -70.500;  -57.400;    0.000;-13.10000
 356.29;  -48.500;  -51.100;    0.000; 2.60000
 356.31;   23.200;   21.500;    0.000; 1.70000
 356.32;  -56.400;  -79.900;    0.000;23.50000
 356.33;  -60.200;  -69.400;    0.000; 9.20000
 356.35;  -26.200;  -40.200;    0.000;14.00000
 356.36;    2.000;  -14.800;    0.000;16.80000
 356.37;   16.900;  -13.300;    0.000;30.20000
 356.39;   27.100;    8.100;    0.000;19.00000
 356.40;  -73.000;  -76.200;    0.000; 3.20000
 356.41;   -8.000;   -2.400;    0.000;-5.60000
 356.43;   -9.100;   -4.800;    0.000;-4.30000
 356.44;  -91.800;  -69.000;    0.000;-22.80000
 356.45;   -9.000;  -49.100;    0.000;40.10000
 356.47;  -55.500;  -50.800;    0.000;-4.70000
 356.48;   -8.800;   -2.700;    0.000;-6.10000
 356.49;  -29.400;  -37.200;    0.000; 7.80000
 356.51;  -45.200;  -26.900;    0.000;-18.30000
 356.52;  -35.500;  -33.100;    0.000;-2.40000
 356.53;  -21.100;  -16.700;    0.000;-4.40000
 356.55;  -63.700; -100.400;    0.000;36.70000
 356.56;  -22.800;  -20.400;    0.000;-2.40000
 356.57;  -34.900;  -55.100;    0.000;20.20000
 356.59;   61.600;   40.100;    0.000;21.50000
 356.60;   30.400;   59.000;    0.000;-28.60000
 356.61;  -43.500;  -79.200;    0.000;35.70000
 356.63;   77.000;   57.100;    0.000;19.90000
 356.64;   25.000;  -10.200;    0.000;35.20000
 356.65;  -36.100;  -64.100;    0.000;28.00000
 356.67;  -53.900;  -65.000;    0.000;11.10000
 356.68;    2.600;   40.900;    0.000;-38.30000
 356.69;  -30.600;  -57.900;    0.000;27.30000
 356.71;  -19.000;   22.700;    0.000;-41.70000
 356.72;  -21.800;  -22.000;    0.000; 0.20000
 356.73;  -23.700;  -51.000;    0.000;27.30000
 356.75;   20.000;   25.600;    0.000;-5.60000
 356.76;    7.300;   13.200;    0.000;-5.90000
 356.77;  -45.800;  -64.000;    0.000;18.20000
 356.79;  -22.900;  -50.500;    0.000;27.60000
 356.80;   -4.100;  -22.600;    0.000;18.50000
 356.81;  -46.800;  -24.800;    0.000;-22.00000
 356.83;  -72.900; -114.400;    0.000;41.50000
 356.84;  -51.800;  -35.300;    0.000;-16.50000
 356.85;  -47.300;  -44.400;    0.000;-2.90000
 356.87;  -57.900;  -48.400;    0.000;-9.50000
 356.88;  -57.300;  -67.800;    0.000;10.50000
 356.89;    0.500;  -32.000;    0.000;32.50000
 356.91;   17.400;    5.200;    0.000;12.20000
 356.92;  -43.700;  -23.400;    0.000;-20.30000
 356.93;  -20.400;  -15.500;    0.000;-4.90000
 356.95;  -14.300;  -14.300;    0.000; 0.00000
 356.96;   -6.100;  -21.600;    0.000;15.50000
 356.97;  -54.900;  -38.300;    0.000;-16.60000
 356.99;  -60.700;  -53.900;    0.000;-6.80000
 357.00;  -29.000;  -33.300;    0.000; 4.30000
 357.01;  -33.000;  -39.800;    0.000; 6.80000
 357.03;   24.400;   15.900;    0.000; 8.50000
 357.04;  -27.200;  -56.200;    0.000;29.00000
 357.05;   15.800;   33.600;    0.000;-17.80000
 357.07;  -43.300;  -37.300;    0.000;-6.00000
 357.08;  -52.200;  -51.100;    0.000;-1.10000
 357.09;   18.200;   -6.500;    0.000;24.70000
 357.11;  -82.500;  -77.800;    0.000;-4.70000
 357.12;    6.800;   -4.000;    0.000;10.80000
 357.13;  -45.200;  -59.900;    0.000;14.70000
 357.15;  -95.700;  -78.300;    0.000;-17.40000
 357.16;  -62.900;  -36.200;    0.000;-26.70000
 357.17;   11.300;  -15.200;    0.000;26.50000
 357.19;    9.100;  -14.800;    0.000;23.90000
 357.20;   48.500;   18.700;    0.000;29.80000
 357.21;  -33.300;   -7.800;    0.000;-25.50000
 357.23;   -0.300;  -25.400;    0.000;25.10000
 357.24;  -53.000;  -27.700;    0.000;-25.30000
 357.25;    2.600;  -16.700;    0.000;19.30000
 357.26;  -68.200;  -70.400;    0.000; 2.20000
 357.28;  -36.400;  -81.700;    0.000;45.30000
 357.29;  -58.000;  -60.700;    0.000; 2.70000
 357.30;   -7.700;  -23.400;    0.000;15.70000
 357.32;  -55.400;  -48.000;    0.000;-7.40000
 357.33;  -45.000;  -60.600;    0.000;15.60000
 357.34;  -32.700;  -27.200;    0.000;-5.50000
 357.36;  -13.300;  -19.700;    0.000; 6.40000
 357.37;  -23.700;   -3.100;    0.000;-20.60000
 357.38;  -50.000;  -51.400;    0.000; 1.40000
 357.40;  -83.900;  -73.900;    0.000;-10.00000
 357.41;  -28.800;  -57.200;    0.000;28.40000
 357.42;  -86.900;  -73.600;    0.000;-13.30000
 357.44;   54.200;   38.600;    0.000;15.60000
 357.45;   -0.200;    0.200;    0.000;-0.40000
 357.46;  -83.700; -109.200;    0.000;25.50000
 357.48;  -32.300;  -27.100;    0.000;-5.20000
 357.49;    7.000;  -13.200;    0.000;20.20000
 357.50;   15.900;   -6.600;    0.000;22.50000
 357.52;   54.400;   44.700;    0.000; 9.70000
 357.53;  -47.000;  -48.200;    0.000; 1.20000
 357.54;  -14.900;  -31.200;    0.000;16.30000
 357.55;  -42.800;  -27.600;    0.000;-15.20000
 357.57;  -80.000;  -90.700;    0.000;10.70000
 357.58;  -44.100;  -55.400;    0.000;11.30000
 357.59;   -3.300;  -18.900;    0.000;15.60000
 357.61;  -42.700;   -8.100;    0.000;-34.60000
 357.62;  -23.800;  -33.400;    0.000; 9.60000
 357.63;    7.700;  -27.200;    0.000;34.90000
 357.65;  -61.500;  -64.800;    0.000; 3.30000
 357.66;  -56.200;  -54.300;    0.000;-1.90000
 357.67;  -13.900;  -39.300;    0.000;25.40000
 357.69;  -25.500;  -18.800;    0.000;-6.70000
 357.70; -107.500;  -95.000;    0.000;-12.50000
 357.71;   -4.000;  -34.800;    0.000;30.80000
 357.73;   82.500;   60.600;    0.000;21.90000
 357.74;  -27.300;  -59.200;    0.000;31.90000
 357.75;   15.000;   -4.100;    0.000;19.10000
 357.76;  -25.400;  -29.900;    0.000; 4.50000
 357.78;   27.600;   72.300;    0.000;-44.70000
 357.79;   32.900;   15.400;    0.000;17.50000
 357.80;   -5.900;  -37.100;    0.000;31.20000
 357.82;  -21.300;   -4.200;    0.000;-17.10000
 357.83;  -65.400;  -71.700;    0.000; 6.30000
 357.84;  -58.300;  -68.300;    0.000;10.00000
 357.86;    8.200;   -1.800;    0.000;10.00000
 357.87;  -43.700;  -67.000;    0.000;23.30000
 357.88;   19.300;   24.600;    0.000;-5.30000
 357.90;  -17.200;   -8.000;    0.000;-9.20000
 357.91;  -20.500;  -21.100;    0.000; 0.60000
 357.92;  -12.300;  -30.300;    0.000;18.00000
 357.93;  -45.600;  -75.600;    0.000;30.00000
 357.95;  -62.700;  -63.700;    0.000; 1.00000
 357.96;  -45.200;  -30.000;    0.000;-15.20000
 357.97;  -27.900;  -48.800;    0.000;20.90000
 357.99;   10.100;   13.600;    0.000;-3.50000
 358.00;  -44.600;  -38.700;    0.000;-5.90000
 358.01;  -32.800;  -59.900;    0.000;27.10000
 358.03;  -29.500;  -39.400;    0.000; 9.90000
 358.04;  -60.800;  -45.200;    0.000;-15.60000
 358.05;  -13.400;    6.900;    0.000;-20.30000
 358.07;   21.700;  -13.400;    0.000;35.10000
 358.08;  -34.400;  -54.700;    0.000;20.30000
 358.09;  -63.500;  -99.500;    0.000;36.00000
 358.10;    3.200;   16.300;    0.000;-13.10000
 358.12;    2.900;   -7.400;    0.000;10.30000
 358.13;  -25.900;  -56.800;    0.000;30.90000
 358.14;    0.300;  -26.100;    0.000;26.40000
 358.16;  -35.600;  -41.900;    0.000; 6.30000
 358.17;   67.800;   26.400;    0.000;41.40000
 358.18;  -37.700;  -46.800;    0.000; 9.10000
 358.20;   22.000;    6.000;    0.000;16.00000
 358.21;    4.500;  -12.700;    0.000;17.20000
 358.22;   41.200;   23.900;    0.000;17.30000
 358.23;  -35.700;  -40.800;    0.000; 5.10000
 358.25;  -35.900;  -39.400;    0.000; 3.50000
 358.26;   11.800;  -10.600;    0.000;22.40000
 358.27;   10.400;  -28.000;    0.000;38.40000
 358.29;  -37.900;  -72.700;    0.000;34.80000
 358.30;  -25.700;  -27.000;    0.000; 1.30000
 358.31;   34.900;   16.000;    0.000;18.90000
 358.33;  -19.000;  -41.800;    0.000;22.80000
 358.34;  -22.900;  -15.800;    0.000;-7.10000
 358.35;    7.600;   -9.700;    0.000;17.30000
 358.36;  -31.900;  -29.900;    0.000;-2.00000
 358.38;  -83.700;  -91.500;    0.000; 7.80000
 358.39;  -77.800;  -68.900;    0.000;-8.90000
 358.40;  -10.700;  -46.000;    0.000;35.30000
 358.42;  -34.700;  -52.100;    0.000;17.40000
 358.43;  -20.100;  -75.300;    0.000;55.20000
 358.44;  -38.200; -102.100;    0.000;63.90000
 358.45;  -78.500;  -75.700;    0.000;-2.80000
 358.47;   21.700;    3.500;    0.000;18.20000
 358.48;    3.800;  -10.000;    0.000;13.80000
 358.49;  -52.200;  -68.700;    0.000;16.50000
 358.51;   27.500;   19.200;    0.000; 8.30000
 358.52;  -28.000;  -40.000;    0.000;12.00000
 358.53;   66.600;   35.800;    0.000;30.80000
 358.55;  -77.100;  -86.300;    0.000; 9.20000
 358.56;   19.100;   35.900;    0.000;-16.80000
 358.57;  -48.500;  -90.100;    0.000;41.60000
 358.58;   46.500;   34.900;    0.000;11.60000
 358.60;  -10.800;  -16.400;    0.000; 5.60000
 358.61;   -3.900;  -37.400;    0.000;33.50000
 358.62;    7.900;  -18.800;    0.000;26.70000
 358.64;  -12.700;  -37.800;    0.000;25.10000
 358.65;  -60.800;  -82.900;    0.000;22.10000
 358.66;    1.200;  -28.400;    0.000;29.60000
 358.67;    1.100;  -37.200;    0.000;38.30000
 358.69;  -19.000;  -51.800;    0.000;32.80000
 358.70;   11.900;   -9.600;    0.000;21.50000
 358.71;  -22.700;  -42.500;    0.000;19.80000
 358.73;    6.000;  -10.100;    0.000;16.10000
 358.74;  -42.800;  -41.500;    0.000;-1.30000
 358.75;  -87.700;  -74.000;    0.000;-13.70000
 358.76;  -51.600;  -88.400;    0.000;36.80000
 358.78;   19.600;   11.000;    0.000; 8.60000
 358.79;   25.200;   29.800;    0.000;-4.60000
 358.80;   21.500;   -9.800;    0.000;31.30000
 358.82;  -31.400;  -78.800;    0.000;47.40000
 358.83;  -53.100;  -65.700;    0.000;12.60000
 358.84;  -17.300;  -32.800;    0.000;15.50000
 358.85;  -14.400;  -53.700;    0.000;39.30000
 358.87;  -13.000;  -22.300;    0.000; 9.30000
 358.88;  -18.000;  -49.500;    0.000;31.50000
 358.89;   77.600;   53.200;    0.000;24.40000
 358.91;  342.900;  324.100;    0.000;18.80000
 358.92;   20.300;  -11.900;    0.000;32.20000
 358.93;  -56.400;  -58.300;    0.000; 1.90000
 358.94;   31.500;    5.700;    0.000;25.80000
 358.96;   40.500;   35.200;    0.000; 5.30000
 358.97;  -75.600; -113.200;    0.000;37.60000
 358.98;   21.400;   -9.000;    0.000;30.40000
 359.00;   52.800;   36.200;    0.000;16.60000
 359.01;   30.900;   23.900;    0.000; 7.00000
 359.02;   17.100;  -39.800;    0.000;56.90000
 359.03;  -18.500;  -65.700;    0.000;47.20000
 359.05;   64.800;   37.000;    0.000;27.80000
 359.06;  -58.700; -105.500;    0.000;46.80000
 359.07;  -24.700;  -52.500;    0.000;27.80000
 359.09;  -32.400;  -51.200;    0.000;18.80000
 359.10;   50.600;   18.700;    0.000;31.90000
 359.11;    6.600;  -43.300;    0.000;49.90000
 359.12;  -40.000;  -80.700;    0.000;40.70000
 359.14;   14.300;  -15.100;    0.000;29.40000
 359.15;   49.500;    6.500;    0.000;43.00000
 359.16;   14.600;  -37.900;    0.000;52.50000
 359.18;   50.200;   -6.400;    0.000;56.60000
 359.19;   -3.800;  -15.000;    0.000;11.20000
 359.20;   38.300;  -34.100;    0.000;72.40000
 359.21;  -31.500;  -48.100;    0.000;16.60000
 359.23;  -32.400;  -60.100;    0.000;27.70000
 359.24;   31.700;   -1.700;    0.000;33.40000
 359.25;   24.400;  -49.000;    0.000;73.40000
 359.26;    9.400;  -28.900;    0.000;38.30000
 359.28;   11.100;   -7.500;    0.000;18.60000
 359.29;   61.800;   20.500;    0.000;41.30000
 359.30;   98.900;   78.900;    0.000;20.00000
 359.32;   52.000;   -0.500;    0.000;52.50000
 359.33;   60.500;  -12.400;    0.000;72.90000
 359.34;   37.100;   -6.500;    0.000;43.60000
 359.35;   73.200;   33.100;    0.000;40.10000
 359.37;   19.100;   -4.800;    0.000;23.90000
 359.38;   43.100;   13.300;    0.000;29.80000
 359.39;   31.800;  -39.000;    0.000;70.80000
 359.40;   92.400;   20.200;    0.000;72.20000
 359.42;   23.800;  -44.000;    0.000;67.80000
 359.43;   30.300;  -40.500;    0.000;70.80000
 359.44;   47.100;  -13.400;    0.000;60.50000
 359.46;   60.900;    1.200;    0.000;59.70000
 359.47;   18.000;  -34.700;    0.000;52.70000
 359.48;   38.700;   -3.700;    0.000;42.40000
 359.49;  -14.000;  -45.300;    0.000;31.30000
 359.51;  -23.200;  -52.400;    0.000;29.20000
 359.52;   25.500;   -8.800;    0.000;34.30000
 359.53;   55.700;  -11.600;    0.000;67.30000
 359.54;   -6.100;  -55.200;    0.000;49.10000
 359.56;   81.400;   11.700;    0.000;69.70000
 359.57;   63.500;  -14.100;    0.000;77.60000
 359.58;   85.500;    2.300;    0.000;83.20000
 359.60;   87.400;  -15.400;    0.000;102.80000
 359.61;  123.300;   21.800;    0.000;101.50000
 359.62;  156.100;   68.200;    0.000;87.90000
 359.63;  104.800;   -2.300;    0.000;107.10000
 359.65;   63.900;  -34.400;    0.000;98.30000
 359.66;   68.400;  -38.500;    0.000;106.90000
 359.67;   76.700;  -45.100;    0.000;121.80000
 359.68;   75.300;  -39.300;    0.000;114.60000
 359.70;   61.200;  -45.300;    0.000;106.50000
 359.71;    5.100;  -63.800;    0.000;68.90000
 359.72;   81.600;  -23.800;    0.000;105.40000
 359.74;   47.300;   -5.500;    0.000;52.80000
 359.75;   65.000;  -53.400;    0.000;118.40000
 359.76;  116.200;   34.400;    0.000;81.80000
 359.77;   80.800;  -26.100;    0.000;106.90000
 359.79;   64.600;   10.000;    0.000;54.60000
 359.80;   49.100;  -50.700;    0.000;99.80000
 359.81;   77.900;  -19.400;    0.000;97.30000
 359.82;   -3.600;  -96.600;    0.000;93.00000
 359.84;   71.300;  -50.400;    0.000;121.70000
 359.85;   61.900;  -63.900;    0.000;125.80000
 359.86;  151.600;   19.800;    0.000;131.80000
 359.87;   21.300;  -59.100;    0.000;80.40000
 359.89;   42.600;  -44.600;    0.000;87.20000
 359.90;   65.900;  -33.900;    0.000;99.80000
 359.91;   38.600;  -47.800;    0.000;86.40000
 359.92;   47.700;  -56.200;    0.000;103.90000
 359.94;    7.100;  -75.800;    0.000;82.90000
 359.95;   24.400;  -89.400;    0.000;113.80000
 359.96;   68.800;  -16.200;    0.000;85.00000
 359.98;   72.500;  -39.400;    0.000;111.90000
 359.99;  102.000;  -30.400;    0.000;132.40000
 360.00;  115.400;   24.900;    0.000;90.50000
 360.01;   74.100;  -56.500;    0.000;130.60000
 360.03;  137.000;   34.800;    0.000;102.20000
 360.04;  100.200;  -26.300;    0.000;126.50000
 360.05;  117.400;   32.400;    0.000;85.00000
 360.06;   83.800;   -6.300;    0.000;90.10000
 360.08;   20.000;  -74.500;    0.000;94.50000
 360.09;  102.500;    0.800;    0.000;101.70000
 360.10;   56.700;   -0.200;    0.000;56.90000
 360.11;   36.400;  -27.200;    0.000;63.60000
 360.13;  140.100;   71.100;    0.000;69.00000
 360.14;   43.600;  -33.500;    0.000;77.10000
 360.15;   72.900;  -12.100;    0.000;85.00000
 360.16;   88.700;   28.200;    0.000;60.50000
 360.18;   26.600;  -71.900;    0.000;98.50000
 360.19;   80.900;   10.800;    0.000;70.10000
 360.20;   80.000;   20.000;    0.000;60.00000
 360.21;   54.000;   -4.000;    0.000;58.00000
 360.23;   58.700;  -27.200;    0.000;85.90000
 360.24;   45.900;  -31.500;    0.000;77.40000
 360.25;   88.100;   35.600;    0.000;52.50000
 360.26;  102.800;   21.100;    0.000;81.70000
 360.28;   -9.300;  -42.900;    0.000;33.60000
 360.29;   48.000;  -33.000;    0.000;81.00000
 360.30;   -8.100;  -45.600;    0.000;37.50000
 360.31;   38.000;    6.500;    0.000;31.50000
 360.33;   -3.600;  -72.500;    0.000;68.90000
 360.34;   -4.800;  -81.600;    0.000;76.80000
 360.35;   67.900;   26.600;    0.000;41.30000
 360.36;    6.300;  -58.900;    0.000;65.20000
 360.38;   11.600;  -56.300;    0.000;67.90000
 360.39;   27.800;  -23.200;    0.000;51.00000
 360.40;    3.300;  -70.300;    0.000;73.60000
 360.41;  106.300;   42.000;    0.000;64.30000
 360.43;   47.200;  -13.700;    0.000;60.90000
 360.44;   41.000;  -40.000;    0.000;81.00000
 360.45;  157.100;   99.600;    0.000;57.50000
 360.46;  134.600;   67.800;    0.000;66.80000
 360.48;   44.000;  -49.800;    0.000;93.80000
 360.49;   -9.600;  -65.400;    0.000;55.80000
 360.50;   34.300;  -32.200;    0.000;66.50000
 360.51;   15.500;  -63.800;    0.000;79.30000
 360.53;   56.800;   47.600;    0.000; 9.20000
 360.54;    3.300;  -63.000;    0.000;66.30000
 360.55;   19.100;  -38.600;    0.000;57.70000
 360.56;   15.300;  -37.100;    0.000;52.40000
 360.58;   44.800;  -48.500;    0.000;93.30000
 360.59;   39.300;  -21.500;    0.000;60.80000
 360.60;   13.300;  -40.500;    0.000;53.80000
 360.61;   36.100;  -83.900;    0.000;120.00000
 360.63;   27.000;  -37.700;    0.000;64.70000
 360.64;   26.900;  -51.500;    0.000;78.40000
 360.65;   58.500;  -17.900;    0.000;76.40000
 360.66;   26.700;  -38.300;    0.000;65.00000
 360.68;   74.100;   12.000;    0.000;62.10000
 360.69;   76.300;  -12.200;    0.000;88.50000
 360.70;   81.700;   -5.300;    0.000;87.00000
 360.71;   63.100;  -26.400;    0.000;89.50000
 360.73;   78.100;   -8.000;    0.000;86.10000
 360.74;  100.400;   17.600;    0.000;82.80000
 360.75;  101.900;  -11.600;    0.000;113.50000
 360.76;  133.700;   49.500;    0.000;84.20000
 360.78;   42.000;  -70.800;    0.000;112.80000
 360.79;  116.300;  -22.100;    0.000;138.40000
 360.80;  117.300;  -15.200;    0.000;132.50000
 360.81;  148.000;   -5.300;    0.000;153.30000
 360.83;  175.300;  -12.400;    0.000;187.70000
 360.84;  174.100;  -19.000;    0.000;193.10000
 360.85;  139.400;  -76.100;    0.000;215.50000
 360.86;  171.000;  -79.000;    0.000;250.00000
 360.87;  314.900;   31.400;    0.000;283.50000
 360.89;  354.300;  -50.300;    0.000;404.60000
 360.90;  406.000;  -70.800;    0.000;476.80000
 360.91;  679.800;   49.500;    0.000;630.30000
 360.92;  914.700;  -32.200;    0.000;946.90000
 360.94; 1366.900;  -14.300;    0.000;1381.20000
 360.95; 2284.300;   -9.900;    0.000;2294.20000
 360.96; 3628.600;  -25.000;    0.000;3653.60000
 360.97; 6257.700;  -61.200;    0.000;6318.90000
 360.99;10872.600;  -33.700;    0.000;10906.30000
 361.00;17434.100;  -14.400;    0.000;17448.50000
 361.01;24448.900;   23.800;    0.000;24425.10000
 361.02;33252.900;  -65.800;    0.000;33318.70000
 361.04;50330.200;   13.000;    0.000;50317.20000
 361.05;64635.400;  -27.200;    0.000;64662.60000
 361.06;64645.700;   62.400;    0.000;64583.30000
 361.07;64635.400;  -54.300;    0.000;64689.70000
 361.09;62459.200;  -16.400;    0.000;62475.60000
 361.10;23651.500;   16.700;    0.000;23634.80000
 361.11; 6964.800;   11.900;    0.000;6952.90000
 361.12; 3917.700;  -85.200;    0.000;4002.90000
 361.13; 2729.900;  -80.900;    0.000;2810.80000
 361.15; 2073.900;   -2.200;    0.000;2076.10000
 361.16; 1680.700;  -76.900;    0.000;1757.60000
 361.17; 1720.900;  -24.400;    0.000;1745.30000
 361.18; 1964.300;  -58.200;    0.000;2022.50000
 361.20; 2604.900;  -46.700;    0.000;2651.60000
 361.21; 3946.900;   23.800;    0.000;3923.10000
 361.22; 6134.000;  -27.800;    0.000;6161.80000
 361.23; 9612.700;   12.100;    0.000;9600.60000
 361.25;13419.700;  -52.500;    0.000;13472.20000
 361.26;17719.300;  -52.300;    0.000;17771.60000
 361.27;26382.800;   -5.600;    0.000;26388.40000
 361.28;44655.000;  -64.500;    0.000;44719.50000
 361.29;57556.000;  -99.100;    0.000;57655.10000
 361.31;52033.300;  -73.300;    0.000;52106.60000
 361.32;29090.300;  -57.600;    0.000;29147.90000
 361.33;10208.500;    0.900;    0.000;10207.60000
 361.34; 3802.800;  -43.500;    0.000;3846.30000
 361.36; 2132.900;  -43.100;    0.000;2176.00000
 361.37; 1627.600;  -59.500;    0.000;1687.10000
 361.38; 1479.700;  -26.300;    0.000;1506.00000
 361.39; 1627.000;    4.000;    0.000;1623.00000
 361.40; 1885.200;  -34.500;    0.000;1919.70000
 361.42; 2361.600;  -45.700;    0.000;2407.30000
 361.43; 3272.000;  -36.600;    0.000;3308.60000
 361.44; 5253.900;   -3.500;    0.000;5257.40000
 361.45; 6277.200;  -71.700;    0.000;6348.90000
 361.47; 5461.700;   10.400;    0.000;5451.30000
 361.48; 2792.400;  -42.700;    0.000;2835.10000
 361.49; 1096.200;  -14.800;    0.000;1111.00000
 361.50;  517.200;  -33.100;    0.000;550.30000
 361.52;  322.500;  -45.900;    0.000;368.40000
 361.53;  275.100;  -63.600;    0.000;338.70000
 361.54;  276.600;   -3.500;    0.000;280.10000
 361.55;  180.100;  -77.500;    0.000;257.60000
 361.56;  250.600;   11.200;    0.000;239.40000
 361.58;  291.300;   72.000;    0.000;219.30000
 361.59;  110.800;  -83.300;    0.000;194.10000
 361.60;  182.100;  -41.700;    0.000;223.80000
 361.61;  133.800;  -40.200;    0.000;174.00000
 361.63;  169.000;   13.000;    0.000;156.00000
 361.64;  144.400;  -32.800;    0.000;177.20000
 361.65;  138.700;  -27.900;    0.000;166.60000
 361.66;   70.200; -112.100;    0.000;182.30000
 361.67;  171.000;   27.900;    0.000;143.10000
 361.69;  100.800;  -49.200;    0.000;150.00000
 361.70;  131.000;  -27.900;    0.000;158.90000
 361.71;   73.000;  -82.000;    0.000;155.00000
 361.72;  160.000;  -12.900;    0.000;172.90000
 361.74;   84.600;  -46.200;    0.000;130.80000
 361.75;   55.100;  -37.500;    0.000;92.60000
 361.76;   73.700;  -15.300;    0.000;89.00000
 361.77;  116.300;  -25.600;    0.000;141.90000
 361.78;   54.000;  -83.600;    0.000;137.60000
 361.80;  125.100;   -5.100;    0.000;130.20000
 361.81;   85.900;  -39.800;    0.000;125.70000
 361.82;   69.200;  -27.300;    0.000;96.50000
 361.83;  126.000;    3.200;    0.000;122.80000
 361.84;   97.900;  -20.200;    0.000;118.10000
 361.86;   85.400;  -27.200;    0.000;112.60000
 361.87;   93.500;    3.600;    0.000;89.90000
 361.88;  113.600;   26.600;    0.000;87.00000
 361.89;   39.200;  -34.000;    0.000;73.20000
 361.91;  135.000;  -11.700;    0.000;146.70000
 361.92;   69.500;  -39.200;    0.000;108.70000
 361.93;  133.500;    6.300;    0.000;127.20000
 361.94;   69.600;  -49.400;    0.000;119.00000
 361.95;   65.800;  -13.300;    0.000;79.10000
 361.97;   39.000;  -68.900;    0.000;107.90000
 361.98;   53.100;  -10.900;    0.000;64.00000
 361.99;   96.800;  -18.400;    0.000;115.20000
 362.00;  165.900;   58.500;    0.000;107.40000
 362.01;   84.300;  -30.800;    0.000;115.10000
 362.03;   69.200;  -45.800;    0.000;115.00000
 362.04;   59.100;  -92.700;    0.000;151.80000
 362.05;   96.000;  -29.100;    0.000;125.10000
 362.06;  122.200;  -11.900;    0.000;134.10000
 362.08;   91.300;   -9.400;    0.000;100.70000
 362.09;  113.600;  -38.400;    0.000;152.00000
 362.10;   13.000; -131.100;    0.000;144.10000
 362.11;  152.800;   25.300;    0.000;127.50000
 362.12;   99.100;  -20.300;    0.000;119.40000
 362.14;  100.100;   -6.500;    0.000;106.60000
 362.15;   19.400; -108.400;    0.000;127.80000
 362.16;   93.400;  -12.500;    0.000;105.90000
 362.17;  123.000;  -12.300;    0.000;135.30000
 362.18;  113.100;  -25.300;    0.000;138.40000
 362.20;   62.400;  -54.700;    0.000;117.10000
 362.21;   66.600;  -16.000;    0.000;82.60000
 362.22;   76.000;  -15.700;    0.000;91.70000
 362.23;   84.700;  -33.500;    0.000;118.20000
 362.24;   32.200;  -82.100;    0.000;114.30000
 362.26;   69.000;  -52.400;    0.000;121.40000
 362.27;  112.800;   -0.600;    0.000;113.40000
 362.28;   69.800;  -51.000;    0.000;120.80000
 362.29;   94.700;  -35.800;    0.000;130.50000
 362.30;  115.800;  -26.100;    0.000;141.90000
 362.32;   69.600;  -41.500;    0.000;111.10000
 362.33;  143.000;   49.200;    0.000;93.80000
 362.34;   53.700;  -33.100;    0.000;86.80000
 362.35;   86.200;   -0.200;    0.000;86.40000
 362.36;   49.500;  -69.200;    0.000;118.70000
 362.38;   99.900;  -32.400;    0.000;132.30000
 362.39;   34.400; -104.100;    0.000;138.50000
 362.40;   34.300;  -72.300;    0.000;106.60000
 362.41;   64.100;  -34.300;    0.000;98.40000
 362.42;   88.900;  -18.300;    0.000;107.20000
 362.44;   50.400;  -20.600;    0.000;71.00000
 362.45;   87.500;  -36.600;    0.000;124.10000
 362.46;   81.900;  -12.600;    0.000;94.50000
 362.47;   50.400;  -96.000;    0.000;146.40000
 362.48;  206.200;   47.400;    0.000;158.80000
 362.50;   78.100;  -44.300;    0.000;122.40000
 362.51;   93.900;  -25.500;    0.000;119.40000
 362.52;   22.600;  -64.000;    0.000;86.60000
 362.53;   51.000;  -40.900;    0.000;91.90000
 362.54;   62.800;   -6.800;    0.000;69.60000
 362.56;  164.800;   66.000;    0.000;98.80000
 362.57;  111.000;  -15.400;    0.000;126.40000
 362.58;   85.300;    9.100;    0.000;76.20000
 362.59;   41.700;  -45.300;    0.000;87.00000
 362.60;   38.600;  -49.600;    0.000;88.20000
 362.62;   45.800;  -58.400;    0.000;104.20000
 362.63;   59.400;  -33.200;    0.000;92.60000
 362.64;    3.000;  -60.200;    0.000;63.20000
 362.65;   82.700;   41.500;    0.000;41.20000
 362.66;   25.800;  -51.000;    0.000;76.80000
 362.68;   94.700;   46.100;    0.000;48.60000
 362.69;   89.500;    8.900;    0.000;80.60000
 362.70;   90.600;  -16.100;    0.000;106.70000
 362.71;   40.000;  -36.000;    0.000;76.00000
 362.72;   57.300;  -43.300;    0.000;100.60000
 362.74;  134.200;    9.100;    0.000;125.10000
 362.75;   21.800;  -77.000;    0.000;98.80000
 362.76;   56.000;  -43.400;    0.000;99.40000
 362.77;   47.800;    6.300;    0.000;41.50000
 362.78;   69.400;    7.700;    0.000;61.70000
 362.80;   36.400;  -23.600;    0.000;60.00000
 362.81;   50.100;  -11.400;    0.000;61.50000
 362.82;  -14.700;  -71.000;    0.000;56.30000
 362.83;   63.200;   -6.400;    0.000;69.60000
 362.84;  139.200;   41.100;    0.000;98.10000
 362.86;   57.300;    8.000;    0.000;49.30000
 362.87;   18.100;  -45.000;    0.000;63.10000
 362.88;   36.900;  -11.800;    0.000;48.70000
 362.89;  -20.600;  -54.700;    0.000;34.10000
 362.90;   13.400;  -40.700;    0.000;54.10000
 362.92;   55.000;  -22.300;    0.000;77.30000
 362.93;   33.200;  -66.700;    0.000;99.90000
 362.94;    7.800;  -35.300;    0.000;43.10000
 362.95;  148.200;   64.700;    0.000;83.50000
 362.96;   37.300;   -9.900;    0.000;47.20000
 362.97;   68.300;    2.400;    0.000;65.90000
 362.99;   12.900;  -22.800;    0.000;35.70000
 363.00;  -35.000;  -46.300;    0.000;11.30000
 363.01;   22.700;   -1.200;    0.000;23.90000
 363.02;   11.700;  -68.400;    0.000;80.10000
 363.03;    7.900;  -29.600;    0.000;37.50000
 363.05;   25.200;  -46.800;    0.000;72.00000
 363.06;   29.100;   41.800;    0.000;-12.70000
 363.07;   32.900;   -9.600;    0.000;42.50000
 363.08;    6.000;   -5.300;    0.000;11.30000
 363.09;   30.200;   -9.700;    0.000;39.90000
 363.11;  -30.800;  -26.300;    0.000;-4.50000
 363.12;   50.800;   24.100;    0.000;26.70000
 363.13;  -16.000;  -49.200;    0.000;33.20000
 363.14;   -8.100;  -34.200;    0.000;26.10000
 363.15;  -46.200;  -62.500;    0.000;16.30000
 363.16;   10.500;  -44.000;    0.000;54.50000
 363.18;   43.000;   10.500;    0.000;32.50000
 363.19;  -15.200;  -65.900;    0.000;50.70000
 363.20;  -17.900;  -31.600;    0.000;13.70000
 363.21;  -40.800; -101.300;    0.000;60.50000
 363.22;   27.600;    1.800;    0.000;25.80000
 363.24;   71.700;   54.400;    0.000;17.30000
 363.25;   34.400;  -12.900;    0.000;47.30000
 363.26;   -5.900;  -33.300;    0.000;27.40000
 363.27;   18.900;  -30.200;    0.000;49.10000
 363.28;   -6.800;  -28.100;    0.000;21.30000
 363.29;  -39.400;  -58.500;    0.000;19.10000
 363.31;  -57.900;  -60.900;    0.000; 3.00000
 363.32;   -7.900;  -41.000;    0.000;33.10000
 363.33;   -4.000;  -54.300;    0.000;50.30000
 363.34;   -7.100;  -32.900;    0.000;25.80000
 363.35;   -9.100;  -73.000;    0.000;63.90000
 363.36;    8.800;  -24.300;    0.000;33.10000
 363.38;   42.600;    7.700;    0.000;34.90000
 363.39;   45.300;   42.500;    0.000; 2.80000
 363.40;    1.300;  -11.800;    0.000;13.10000
 363.41;   80.700;   72.000;    0.000; 8.70000
 363.42;  -32.300;  -29.100;    0.000;-3.20000
 363.44;  -36.000;  -46.300;    0.000;10.30000
 363.45;  -25.200;  -35.900;    0.000;10.70000
 363.46;   21.700;   -8.400;    0.000;30.10000
 363.47;   -4.600;  -51.700;    0.000;47.10000
 363.48;    2.100;  -45.700;    0.000;47.80000
 363.49;   -9.600;  -57.900;    0.000;48.30000
 363.51;  -11.300;  -29.600;    0.000;18.30000
 363.52;  -11.500;  -42.000;    0.000;30.50000
 363.53;   -9.900;  -38.400;    0.000;28.50000
 363.54;  -26.000;  -60.100;    0.000;34.10000
 363.55;  -38.200;  -57.800;    0.000;19.60000
 363.56;   69.800;   55.800;    0.000;14.00000
 363.58;   -4.000;  -33.100;    0.000;29.10000
 363.59;  -47.600;  -86.300;    0.000;38.70000
 363.60;   32.100;   16.400;    0.000;15.70000
 363.61;  -54.600;  -96.900;    0.000;42.30000
 363.62;   10.700;  -13.200;    0.000;23.90000
 363.64;    4.100;    6.500;    0.000;-2.40000
 363.65;   47.300;   49.500;    0.000;-2.20000
 363.66;  -29.300;  -55.000;    0.000;25.70000
 363.67;  -19.600;  -44.300;    0.000;24.70000
 363.68;   -8.400;   -6.500;    0.000;-1.90000
 363.69;   -3.600;  -36.700;    0.000;33.10000
 363.71;  -37.900;  -74.000;    0.000;36.10000
 363.72;  -38.100;  -32.500;    0.000;-5.60000
 363.73;   59.000;   27.700;    0.000;31.30000
 363.74;  -55.600;  -71.800;    0.000;16.20000
 363.75;   35.700;   45.600;    0.000;-9.90000
 363.76;  -37.800;  -88.100;    0.000;50.30000
 363.78;  -62.400;  -81.400;    0.000;19.00000
 363.79;    3.400;  -15.300;    0.000;18.70000
 363.80;  -12.900;  -34.200;    0.000;21.30000
 363.81;  -40.000;  -63.800;    0.000;23.80000
 363.82;  -15.900;  -16.900;    0.000; 1.00000
 363.83;  -43.300;  -65.600;    0.000;22.30000
 363.85;   46.000;   29.200;    0.000;16.80000
 363.86;   14.000;   14.600;    0.000;-0.60000
 363.87;  -21.800;  -15.700;    0.000;-6.10000
 363.88;   44.200;   24.500;    0.000;19.70000
 363.89;    0.600;  -24.200;    0.000;24.80000
 363.90;  -28.000;  -43.400;    0.000;15.40000
 363.92;   -7.600;  -24.500;    0.000;16.90000
 363.93;   -0.400;  -35.200;    0.000;34.80000
 363.94;   90.300;   54.700;    0.000;35.60000
 363.95;    7.200;  -18.700;    0.000;25.90000
 363.96;   15.100;    4.600;    0.000;10.50000
 363.97;   37.600;    3.000;    0.000;34.60000
 363.99;   11.800;  -12.300;    0.000;24.10000
 364.00;   24.400;   -1.000;    0.000;25.40000
 364.01;  -80.200;  -77.200;    0.000;-3.00000
 364.02;   22.700;    7.400;    0.000;15.30000
 364.03;   19.800;   10.500;    0.000; 9.30000
 364.04;   25.800;  -17.300;    0.000;43.10000
 364.05;  -12.100;  -58.600;    0.000;46.50000
 364.07;  -61.300; -115.800;    0.000;54.50000
 364.08;  -20.500;  -49.900;    0.000;29.40000
 364.09;  -20.300;  -44.400;    0.000;24.10000
 364.10;  -30.400;  -26.700;    0.000;-3.70000
 364.11;  -52.200;  -77.900;    0.000;25.70000
 364.12;  -18.100;  -21.200;    0.000; 3.10000
 364.14;  -43.700;  -66.900;    0.000;23.20000
 364.15;  -36.200;  -67.300;    0.000;31.10000
 364.16;  -19.700;  -26.700;    0.000; 7.00000
 364.17;  -28.400;  -60.100;    0.000;31.70000
 364.18;  -72.100;  -55.600;    0.000;-16.50000
 364.19;  -26.300;  -71.600;    0.000;45.30000
 364.21;   -2.900;  -18.800;    0.000;15.90000
 364.22;   23.300;   33.900;    0.000;-10.60000
 364.23;    0.200;  -11.700;    0.000;11.90000
 364.24;   62.400;   36.500;    0.000;25.90000
 364.25;  -76.000;  -69.600;    0.000;-6.40000
 364.26;   60.800;   43.100;    0.000;17.70000
 364.27;  -26.000;  -30.300;    0.000; 4.30000
 364.29;  -11.400;  -37.200;    0.000;25.80000
 364.30;   21.900;  -15.300;    0.000;37.20000
 364.31;  -25.000;  -47.700;    0.000;22.70000
 364.32;   31.400;    2.700;    0.000;28.70000
 364.33;  -71.500;  -83.100;    0.000;11.60000
 364.34;   -5.500;  -13.600;    0.000; 8.10000
 364.36;  -10.300;  -20.000;    0.000; 9.70000
 364.37;   40.800;   10.600;    0.000;30.20000
 364.38;  -34.800;  -34.500;    0.000;-0.30000
 364.39;   22.200;   -1.200;    0.000;23.40000
 364.40;  -80.400;  -90.500;    0.000;10.10000
 364.41;   28.700;   13.700;    0.000;15.00000
 364.42;   30.300;   -4.100;    0.000;34.40000
 364.44;   41.600;   22.300;    0.000;19.30000
 364.45;  -39.200;  -59.800;    0.000;20.60000
 364.46;   11.000;    2.700;    0.000; 8.30000
 364.47;   -4.400;  -22.400;    0.000;18.00000
 364.48;  -69.000; -119.700;    0.000;50.70000
 364.49;  -34.100;  -44.200;    0.000;10.10000
 364.51;  -28.000;  -55.900;    0.000;27.90000
 364.52;   36.000;   -9.100;    0.000;45.10000
 364.53;   40.100;   -8.800;    0.000;48.90000
 364.54;  -28.400;  -49.100;    0.000;20.70000
 364.55;  -24.800;  -10.200;    0.000;-14.60000
 364.56;  -28.800;  -32.900;    0.000; 4.10000
 364.57;   11.100;  -18.100;    0.000;29.20000
 364.59;    1.600;  -26.900;    0.000;28.50000
 364.60;   51.200;   13.700;    0.000;37.50000
 364.61;  -68.300;  -53.600;    0.000;-14.70000
 364.62;  -45.600;  -47.300;    0.000; 1.70000
 364.63;   20.700;    8.600;    0.000;12.10000
 364.64;  -39.000;  -65.000;    0.000;26.00000
 364.65;  -58.200;  -55.400;    0.000;-2.80000
 364.67;   28.000;   13.800;    0.000;14.20000
 364.68;  -12.700;   10.000;    0.000;-22.70000
 364.69;  -48.700;  -31.200;    0.000;-17.50000
 364.70;  -56.900;  -78.000;    0.000;21.10000
 364.71;  -16.000;  -19.600;    0.000; 3.60000
 364.72;   -3.200;  -51.600;    0.000;48.40000
 364.73;  -44.100;  -61.100;    0.000;17.00000
 364.75;  -28.900;  -27.600;    0.000;-1.30000
 364.76;    0.500;  -14.900;    0.000;15.40000
 364.77;   58.600;   39.100;    0.000;19.50000
 364.78;   43.500;   48.800;    0.000;-5.30000
 364.79;  -29.200;  -52.500;    0.000;23.30000
 364.80;   -7.100;   -9.300;    0.000; 2.20000
 364.81;   -8.700;  -14.000;    0.000; 5.30000
 364.83;  -32.400;  -44.200;    0.000;11.80000
 364.84;   14.200;   -2.200;    0.000;16.40000
 364.85;   13.300;    7.600;    0.000; 5.70000
 364.86;   -2.000;  -47.800;    0.000;45.80000
 364.87;  -62.700;  -55.600;    0.000;-7.10000
 364.88;    7.100;  -20.000;    0.000;27.10000
 364.89;  -32.200;  -41.200;    0.000; 9.00000
 364.91;   -2.400;  -31.400;    0.000;29.00000
 364.92;   16.400;  -37.000;    0.000;53.40000
 364.93;   56.700;   22.900;    0.000;33.80000
 364.94;   24.000;  -77.200;    0.000;101.20000
 364.95;   61.100;  -54.100;    0.000;115.20000
 364.96;  128.600;   28.200;    0.000;100.40000
 364.97;   35.300;   -5.100;    0.000;40.40000
 364.99;   85.900;   52.900;    0.000;33.00000
 365.00;  -10.900;  -28.100;    0.000;17.20000
 365.01;   24.400;   21.500;    0.000; 2.90000
 365.02;   44.700;   45.900;    0.000;-1.20000
 365.03;  -31.900;   -6.400;    0.000;-25.50000
 365.04;  -28.300;  -28.300;    0.000; 0.00000
 365.05;  -18.200;   -5.200;    0.000;-13.00000
 365.06;  -13.200;  -32.100;    0.000;18.90000
 365.08;  -31.100;   -6.900;    0.000;-24.20000
 365.09;   -7.100;  -14.600;    0.000; 7.50000
 365.10;  -49.300;  -59.400;    0.000;10.10000
 365.11;   -7.400;  -10.700;    0.000; 3.30000
 365.12;  -36.200;  -34.400;    0.000;-1.80000
 365.13;   -9.200;  -16.500;    0.000; 7.30000
 365.14;    7.700;  -13.200;    0.000;20.90000
 365.16;  -19.900;  -30.500;    0.000;10.60000
 365.17;   -0.400;   -7.000;    0.000; 6.60000
 365.18;    5.900;   11.600;    0.000;-5.70000
 365.19;  -38.100;  -24.200;    0.000;-13.90000
 365.20;  -53.100;  -56.600;    0.000; 3.50000
 365.21;  -13.000;  -22.300;    0.000; 9.30000
 365.22;  -60.900;  -67.000;    0.000; 6.10000
 365.23;  -47.100;  -34.200;    0.000;-12.90000
 365.25;  -72.300;  -90.800;    0.000;18.50000
 365.26;   25.800;   10.400;    0.000;15.40000
 365.27;    7.800;    9.700;    0.000;-1.90000
 365.28;  -90.900;  -91.100;    0.000; 0.20000
 365.29;  -26.300;  -29.500;    0.000; 3.20000
 365.30;  -60.000;  -25.500;    0.000;-34.50000
 365.31;  -52.100;  -40.600;    0.000;-11.50000
 365.32;  -76.500;  -85.800;    0.000; 9.30000
 365.34;  -43.500;  -47.300;    0.000; 3.80000
 365.35;  -46.600;  -28.500;    0.000;-18.10000
 365.36;  -25.500;   -0.300;    0.000;-25.20000
 365.37;   -7.400;  -34.000;    0.000;26.60000
 365.38;   21.100;   18.400;    0.000; 2.70000
 365.39;  -33.600;  -42.500;    0.000; 8.90000
 365.40;  -25.300;  -14.400;    0.000;-10.90000
 365.41;  -14.300;  -39.300;    0.000;25.00000
 365.43;  -53.000;  -61.300;    0.000; 8.30000
 365.44;  -53.500;  -61.100;    0.000; 7.60000
 365.45;   67.300;   36.700;    0.000;30.60000
 365.46;  -28.000;  -43.100;    0.000;15.10000
 365.47;  -33.000;  -62.500;    0.000;29.50000
 365.48;    0.100;    8.600;    0.000;-8.50000
 365.49;    4.700;  -12.800;    0.000;17.50000
 365.50;  -36.800;  -26.600;    0.000;-10.20000
 365.52;    6.900;   -4.600;    0.000;11.50000
 365.53;   15.300;  -14.300;    0.000;29.60000
 365.54;   -1.900;  -33.800;    0.000;31.90000
 365.55;   63.300;   71.800;    0.000;-8.50000
 365.56;   72.400;   42.200;    0.000;30.20000
 365.57;    6.500;  -14.100;    0.000;20.60000
 365.58;  -48.900;  -67.900;    0.000;19.00000
 365.59;   -4.400;  -61.300;    0.000;56.90000
 365.61;  -67.200;  -89.200;    0.000;22.00000
 365.62;  -60.400;  -73.500;    0.000;13.10000
 365.63;  -29.700;  -68.600;    0.000;38.90000
 365.64;  -59.000;  -33.600;    0.000;-25.40000
 365.65;    8.100;  -10.100;    0.000;18.20000
 365.66;  -25.300;   -2.100;    0.000;-23.20000
 365.67;   50.400;   50.100;    0.000; 0.30000
 365.68;    6.500;   -5.300;    0.000;11.80000
 365.70;  -17.400;  -46.500;    0.000;29.10000
 365.71;   17.300;   22.800;    0.000;-5.50000
 365.72;   72.100;   36.300;    0.000;35.80000
 365.73;   -5.100;   11.700;    0.000;-16.80000
 365.74;    9.300;    6.000;    0.000; 3.30000
 365.75;  -88.100;  -75.300;    0.000;-12.80000
 365.76;  -47.800;  -31.900;    0.000;-15.90000
 365.77;  -38.900;  -76.100;    0.000;37.20000
 365.78;    9.700;    7.100;    0.000; 2.60000
 365.80;    6.100;   -5.200;    0.000;11.30000
 365.81;  -20.100;  -45.800;    0.000;25.70000
 365.82;    6.100;   -2.100;    0.000; 8.20000
 365.83;   35.600;   28.600;    0.000; 7.00000
 365.84;   11.900;   56.100;    0.000;-44.20000
 365.85;   56.300;   53.000;    0.000; 3.30000
 365.86;  -67.600;  -85.200;    0.000;17.60000
 365.87;   14.500;  -10.200;    0.000;24.70000
 365.88;    8.900;   10.400;    0.000;-1.50000
 365.90;   19.300;    5.100;    0.000;14.20000
 365.91;  -56.700;  -52.100;    0.000;-4.60000
 365.92;  -38.800;  -74.800;    0.000;36.00000
 365.93;   69.500;   47.600;    0.000;21.90000
 365.94;   49.100;   15.700;    0.000;33.40000
 365.95;   41.800;   33.700;    0.000; 8.10000
 365.96;   24.800;   16.900;    0.000; 7.90000
 365.97;  -17.800;  -12.000;    0.000;-5.80000
 365.98;   14.400;   -9.100;    0.000;23.50000
 366.00;  -48.100;  -31.400;    0.000;-16.70000
 366.01;  -38.900;  -44.100;    0.000; 5.20000
 366.02;  -35.300;  -40.700;    0.000; 5.40000
 366.03;   -5.200;  -17.100;    0.000;11.90000
 366.04;  -87.400;  -72.700;    0.000;-14.70000
 366.05;  -10.600;   -7.000;    0.000;-3.60000
 366.06;    9.100;   19.200;    0.000;-10.10000
 366.07;   20.900;   43.500;    0.000;-22.60000
 366.08;   -3.500;  -38.500;    0.000;35.00000
 366.10;  -97.800; -107.400;    0.000; 9.60000
 366.11;   -5.100;    8.800;    0.000;-13.90000
 366.12;    5.600;   12.400;    0.000;-6.80000
 366.13;   31.100;   23.800;    0.000; 7.30000
 366.14;  -14.900;  -17.000;    0.000; 2.10000
 366.15;  -29.500;  -47.100;    0.000;17.60000
 366.16;  -12.500;  -20.500;    0.000; 8.00000
 366.17;   73.700;   45.300;    0.000;28.40000
 366.18;  -48.600;  -69.100;    0.000;20.50000
 366.19;  -16.300;  -53.900;    0.000;37.60000
 366.21;  -40.100;  -62.600;    0.000;22.50000
 366.22;   22.600;  -14.700;    0.000;37.30000
 366.23;   -1.000;   17.300;    0.000;-18.30000
 366.24;   64.000;   49.900;    0.000;14.10000
 366.25;   35.300;   21.000;    0.000;14.30000
 366.26;  -32.200;  -75.400;    0.000;43.20000
 366.27;  -44.100;  -49.200;    0.000; 5.10000
 366.28;   -2.000;    3.600;    0.000;-5.60000
 366.29;   11.900;  -11.800;    0.000;23.70000
 366.31;  -22.200;  -37.300;    0.000;15.10000
 366.32;  -12.300;  -12.100;    0.000;-0.20000
 366.33;  -50.800;  -75.700;    0.000;24.90000
 366.34;  -15.300;  -12.700;    0.000;-2.60000
 366.35;  -56.100;  -77.300;    0.000;21.20000
 366.36;  -47.900;  -37.600;    0.000;-10.30000
 366.37;   -1.400;   -6.000;    0.000; 4.60000
 366.38;  -73.200;  -96.500;    0.000;23.30000
 366.39;   22.600;   34.100;    0.000;-11.50000
 366.40;  -41.000;  -25.800;    0.000;-15.20000
 366.41;  -35.900;  -45.100;    0.000; 9.20000
 366.43;   72.700;   45.700;    0.000;27.00000
 366.44;  -25.700;   -1.200;    0.000;-24.50000
 366.45;   35.000;   40.000;    0.000;-5.00000
 366.46;  -94.500;  -56.600;    0.000;-37.90000
 366.47;    5.700;    4.700;    0.000; 1.00000
 366.48;  -15.800;  -12.900;    0.000;-2.90000
 366.49;  -32.700;  -36.000;    0.000; 3.30000
 366.50;   18.300;   25.900;    0.000;-7.60000
 366.51;    5.500;  -10.200;    0.000;15.70000
 366.52;   -9.000;   -5.600;    0.000;-3.40000
 366.54;  -60.900;  -72.700;    0.000;11.80000
 366.55;  -36.200;  -30.300;    0.000;-5.90000
 366.56;   37.900;   35.000;    0.000; 2.90000
 366.57;  -17.600;  -22.300;    0.000; 4.70000
 366.58;  -58.900;  -64.700;    0.000; 5.80000
 366.59;  -65.900;  -40.600;    0.000;-25.30000
 366.60;   29.700;   10.200;    0.000;19.50000
 366.61;  -11.800;  -10.700;    0.000;-1.10000
 366.62;  -31.100;  -29.700;    0.000;-1.40000
 366.63;  -20.800;  -19.700;    0.000;-1.10000
 366.64;   60.000;   48.300;    0.000;11.70000
 366.66;   13.000;  -18.600;    0.000;31.60000
 366.67;    9.700;   43.100;    0.000;-33.40000
 366.68;   -5.800;   -1.800;    0.000;-4.00000
 366.69;    1.300;  -27.800;    0.000;29.10000
 366.70;  -25.300;  -14.700;    0.000;-10.60000
 366.71;    1.200;   15.600;    0.000;-14.40000
 366.72;  -50.900;  -41.700;    0.000;-9.20000
 366.73;  -24.200;    2.100;    0.000;-26.30000
 366.74;  -67.100;  -58.600;    0.000;-8.50000
 366.75;  -90.900;  -64.400;    0.000;-26.50000
 366.76;  -31.800;  -31.200;    0.000;-0.60000
 366.78;  -35.600;  -52.900;    0.000;17.30000
 366.79;   41.800;   17.100;    0.000;24.70000
 366.80;   32.500;   18.500;    0.000;14.00000
 366.81;   43.400;   67.800;    0.000;-24.40000
 366.82;  -35.700;  -30.700;    0.000;-5.00000
 366.83;   -8.300;  -16.200;    0.000; 7.90000
 366.84;  -41.900;  -58.400;    0.000;16.50000
 366.85;   34.200;   19.600;    0.000;14.60000
 366.86;  -49.000;  -75.000;    0.000;26.00000
 366.87;  -24.800;  -63.100;    0.000;38.30000
 366.88;  -48.600;  -74.100;    0.000;25.50000
 366.89;   30.400;   37.500;    0.000;-7.10000
 366.91;   45.300;   15.300;    0.000;30.00000
 366.92;  -42.900;  -62.900;    0.000;20.00000
 366.93;    7.900;   -0.500;    0.000; 8.40000
 366.94;   27.100;    9.000;    0.000;18.10000
 366.95;  -59.400;  -46.700;    0.000;-12.70000
 366.96;   39.100;   41.700;    0.000;-2.60000
 366.97;  -33.300;  -44.700;    0.000;11.40000
 366.98;   18.200;   33.400;    0.000;-15.20000
 366.99;   41.000;    9.000;    0.000;32.00000
 367.00;   19.500;   43.300;    0.000;-23.80000
 367.01;   15.100;   -1.000;    0.000;16.10000
 367.02;  -20.400;  -15.500;    0.000;-4.90000
 367.04;  -72.100;  -72.800;    0.000; 0.70000
 367.05;  -19.100;  -62.300;    0.000;43.20000
 367.06;   -9.700;   11.700;    0.000;-21.40000
 367.07;   73.100;   53.500;    0.000;19.60000
 367.08;   -4.500;  -22.500;    0.000;18.00000
 367.09;    2.000;   15.300;    0.000;-13.30000
 367.10;  -68.700;  -73.100;    0.000; 4.40000
 367.11;   26.200;   21.300;    0.000; 4.90000
 367.12;   60.200;   33.000;    0.000;27.20000
 367.13;   -0.100;   -8.500;    0.000; 8.40000
 367.14;  -38.300;  -33.900;    0.000;-4.40000
 367.15;   70.000;   60.800;    0.000; 9.20000
 367.16;  -13.900;  -28.100;    0.000;14.20000
 367.18;  -39.700;  -33.900;    0.000;-5.80000
 367.19;  -48.900;  -74.100;    0.000;25.20000
 367.20;  -93.100;  -75.400;    0.000;-17.70000
 367.21;  -33.200;  -11.400;    0.000;-21.80000
 367.22;    5.500;   -5.700;    0.000;11.20000
 367.23;  -17.500;  -21.000;    0.000; 3.50000
 367.24;    5.900;   19.400;    0.000;-13.50000
 367.25;    2.500;   34.700;    0.000;-32.20000
 367.26;  -30.900;  -57.100;    0.000;26.20000
 367.27;    8.000;  -19.600;    0.000;27.60000
 367.28;    7.900;   31.100;    0.000;-23.20000
 367.29;  -13.500;  -26.500;    0.000;13.00000
 367.30;  -45.900;  -41.100;    0.000;-4.80000
 367.32;  -78.200;  -81.300;    0.000; 3.10000
 367.33;   20.200;   28.200;    0.000;-8.00000
 367.34;  -27.800;  -14.700;    0.000;-13.10000
 367.35;   -6.600;  -47.400;    0.000;40.80000
 367.36;  -27.800;  -24.800;    0.000;-3.00000
 367.37;   10.900;    2.800;    0.000; 8.10000
 367.38;  -12.500;  -48.700;    0.000;36.20000
 367.39;   74.300;   70.800;    0.000; 3.50000
 367.40;  -22.800;  -60.500;    0.000;37.70000
 367.41;  -64.900;  -34.800;    0.000;-30.10000
 367.42;  -40.300;  -67.400;    0.000;27.10000
 367.43;  -80.500;  -68.300;    0.000;-12.20000
 367.44;  -14.500;  -47.800;    0.000;33.30000
 367.45;  -25.900;  -27.800;    0.000; 1.90000
 367.47;  -25.000;  -43.100;    0.000;18.10000
 367.48;  -58.800;  -66.400;    0.000; 7.60000
 367.49;   31.800;   -1.100;    0.000;32.90000
 367.50;  -26.500;  -20.500;    0.000;-6.00000
 367.51;  -15.300;  -39.500;    0.000;24.20000
 367.52;   14.100;  -19.000;    0.000;33.10000
 367.53;  -58.200;  -49.900;    0.000;-8.30000
 367.54;  -30.000;  -65.500;    0.000;35.50000
 367.55;   36.100;   21.700;    0.000;14.40000
 367.56;  -12.000;  -20.900;    0.000; 8.90000
 367.57;  -71.100;  -73.300;    0.000; 2.20000
 367.58;  -37.300;  -45.500;    0.000; 8.20000
 367.59;  -20.000;  -31.500;    0.000;11.50000
 367.60;  -21.800;   -3.300;    0.000;-18.50000
 367.61;  -17.900;  -48.200;    0.000;30.30000
 367.62;   29.400;   14.600;    0.000;14.80000
 367.64;  -29.300;  -46.800;    0.000;17.50000
 367.65;    4.300;   -0.500;    0.000; 4.80000
 367.66;   81.200;   51.500;    0.000;29.70000
 367.67;  -53.200;  -50.000;    0.000;-3.20000
 367.68;  -28.600;  -48.100;    0.000;19.50000
 367.69;  -89.100;  -76.800;    0.000;-12.30000
 367.70;   79.900;   85.300;    0.000;-5.40000
 367.71;  -71.800; -104.200;    0.000;32.40000
 367.72;  -42.300;  -71.800;    0.000;29.50000
 367.73;    5.600;    4.000;    0.000; 1.60000
 367.74;   -4.900;   10.400;    0.000;-15.30000
 367.75;   -0.600;  -11.100;    0.000;10.50000
 367.76;  -37.700;  -36.100;    0.000;-1.60000
 367.77;    8.000;   -7.400;    0.000;15.40000
 367.78;   -6.400;   -7.600;    0.000; 1.20000
 367.79;  -25.500;  -41.200;    0.000;15.70000
 367.81;   -1.100;   -0.300;    0.000;-0.80000
 367.82;  -55.300;  -65.800;    0.000;10.50000
 367.83;    3.600;   33.900;    0.000;-30.30000
 367.84;  -78.800;  -71.400;    0.000;-7.40000
 367.85;  -14.000;  -20.000;    0.000; 6.00000
 367.86;  -46.300;  -48.900;    0.000; 2.60000
 367.87;  -25.900;   18.600;    0.000;-44.50000
 367.88;  -44.500;  -24.100;    0.000;-20.40000
 367.89;    6.400;    6.000;    0.000; 0.40000
 367.90;  -57.600;  -59.200;    0.000; 1.60000
 367.91;   -9.100;  -38.700;    0.000;29.60000
 367.92;  -23.200;  -30.100;    0.000; 6.90000
 367.93;  -12.700;   -9.800;    0.000;-2.90000
 367.94;  -25.900;  -79.900;    0.000;54.00000
 367.95;  -18.600;  -20.100;    0.000; 1.50000
 367.96;   16.000;   27.500;    0.000;-11.50000
 367.97;   34.900;   -1.900;    0.000;36.80000
 367.98;  -67.400;  -20.900;    0.000;-46.50000
 368.00;  -37.500;  -46.400;    0.000; 8.90000
 368.01;  -12.400;    0.800;    0.000;-13.20000
 368.02;   26.200;    7.400;    0.000;18.80000
 368.03;  -27.100;  -27.100;    0.000; 0.00000
 368.04;   49.700;   44.400;    0.000; 5.30000
 368.05;  -36.600;  -40.800;    0.000; 4.20000
 368.06;  -21.700;  -20.600;    0.000;-1.10000
 368.07;  -62.600;  -75.900;    0.000;13.30000
 368.08;  -29.500;  -11.900;    0.000;-17.60000
 368.09;   -2.400;   10.200;    0.000;-12.60000
 368.10;  -42.500;  -57.100;    0.000;14.60000
 368.11;   -4.200;  -31.700;    0.000;27.50000
 368.12;  -43.900;  -42.800;    0.000;-1.10000
 368.13; -107.800;  -86.600;    0.000;-21.20000
 368.14;    9.200;    2.100;    0.000; 7.10000
 368.15;  -19.900;  -36.300;    0.000;16.40000
 368.16;   14.500;   15.500;    0.000;-1.00000
 368.17;  -63.300;  -63.000;    0.000;-0.30000
 368.18;  -30.000;  -11.500;    0.000;-18.50000
 368.19;  -62.800;  -56.900;    0.000;-5.90000
 368.21;   15.600;   11.900;    0.000; 3.70000
 368.22;  -36.100;  -42.800;    0.000; 6.70000
 368.23;  -13.300;   -0.600;    0.000;-12.70000
 368.24;  -29.200;  -32.500;    0.000; 3.30000
 368.25;   37.000;   49.200;    0.000;-12.20000
 368.26;   15.900;  -12.700;    0.000;28.60000
 368.27;   33.700;    0.100;    0.000;33.60000
 368.28;  -64.700;  -56.200;    0.000;-8.50000
 368.29;  -15.200;  -13.000;    0.000;-2.20000
 368.30;   -1.800;   30.700;    0.000;-32.50000
 368.31;    8.300;   22.200;    0.000;-13.90000
 368.32;  -25.400;  -49.600;    0.000;24.20000
 368.33;  -18.700;  -38.700;    0.000;20.00000
 368.34;  -49.400;  -50.800;    0.000; 1.40000
 368.35;   28.700;    6.100;    0.000;22.60000
 368.36;  -29.400;  -34.500;    0.000; 5.10000
 368.37;  -44.800;  -27.100;    0.000;-17.70000
 368.38;   -5.100;  -13.700;    0.000; 8.60000
 368.39;    1.500;  -29.400;    0.000;30.90000
 368.40;  -63.600;  -40.500;    0.000;-23.10000
 368.41;    7.500;   -7.500;    0.000;15.00000
 368.42;   -2.400;   14.000;    0.000;-16.40000
 368.43;  -26.500;  -32.600;    0.000; 6.10000
 368.44;  -40.600;  -58.900;    0.000;18.30000
 368.46;  -37.300;  -21.400;    0.000;-15.90000
 368.47;  -28.500;  -21.600;    0.000;-6.90000
 368.48; -101.300;  -87.100;    0.000;-14.20000
 368.49;    7.500;  -21.100;    0.000;28.60000
 368.50;  -12.700;  -17.100;    0.000; 4.40000
 368.51;  -35.400;  -13.800;    0.000;-21.60000
 368.52;    4.700;  -10.600;    0.000;15.30000
 368.53;  -65.000;  -75.000;    0.000;10.00000
 368.54;  -32.400;  -65.500;    0.000;33.10000
 368.55;   14.900;    2.200;    0.000;12.70000
 368.56;  -20.500;  -30.300;    0.000; 9.80000
 368.57;  -63.200;  -65.800;    0.000; 2.60000
 368.58;  -19.500;   -2.400;    0.000;-17.10000
 368.59;  -83.200;  -67.200;    0.000;-16.00000
 368.60;   -4.000;  -10.400;    0.000; 6.40000
 368.61;  -26.100;  -32.000;    0.000; 5.90000
 368.62;  -27.900;  -34.000;    0.000; 6.10000
 368.63;  -53.100;  -46.000;    0.000;-7.10000
 368.64;   -7.200;  -10.300;    0.000; 3.10000
 368.65;  -88.200;  -60.400;    0.000;-27.80000
 368.66;  -24.900;  -35.000;    0.000;10.10000
 368.67;  -25.000;  -11.000;    0.000;-14.00000
 368.68;  -82.500;  -97.500;    0.000;15.00000
 368.69;  -51.100;  -31.800;    0.000;-19.30000
 368.70;  -28.500;  -42.700;    0.000;14.20000
 368.71;  -32.300;  -45.300;    0.000;13.00000
 368.72;  -58.200;  -59.200;    0.000; 1.00000
 368.73;  -32.600;  -46.500;    0.000;13.90000
 368.74;  -10.200;  -21.000;    0.000;10.80000
 368.76;   21.000;    0.300;    0.000;20.70000
 368.77;  -77.200;  -72.200;    0.000;-5.00000
 368.78;   19.700;    3.000;    0.000;16.70000
 368.79;  -39.100;  -37.600;    0.000;-1.50000
 368.80;  -37.900;  -41.500;    0.000; 3.60000
 368.81;  -77.200;  -95.300;    0.000;18.10000
 368.82;  -80.200;  -34.900;    0.000;-45.30000
 368.83;   28.200;   33.100;    0.000;-4.90000
 368.84;   59.100;   20.200;    0.000;38.90000
 368.85;  -69.100;  -79.900;    0.000;10.80000
 368.86;  -56.200;  -57.000;    0.000; 0.80000
 368.87;    0.300;   22.000;    0.000;-21.70000
 368.88;  -30.800;  -34.200;    0.000; 3.40000
 368.89;  -41.200;  -57.700;    0.000;16.50000
 368.90;  -43.100;  -50.500;    0.000; 7.40000
 368.91;  -25.500;   10.200;    0.000;-35.70000
 368.92;  -47.500;  -33.800;    0.000;-13.70000
 368.93;    3.900;    7.400;    0.000;-3.50000
 368.94;   22.700;   19.800;    0.000; 2.90000
 368.95;  -27.300;  -23.700;    0.000;-3.60000
 368.96;  -72.800;  -87.600;    0.000;14.80000
 368.97;  -31.100;   -8.600;    0.000;-22.50000
 368.98;   47.100;   13.500;    0.000;33.60000
 368.99;   16.000;   31.800;    0.000;-15.80000
 369.00;  -20.000;  -27.200;    0.000; 7.20000
 369.01;  -13.900;  -28.000;    0.000;14.10000
 369.02;  -94.200;  -74.500;    0.000;-19.70000
 369.03;  -60.500;  -64.400;    0.000; 3.90000
 369.04;   -9.600;   21.700;    0.000;-31.30000
 369.05;  -41.100;  -37.900;    0.000;-3.20000
 369.06;  -58.800;  -61.100;    0.000; 2.30000
 369.07;  -79.500;  -73.500;    0.000;-6.00000
 369.08;   38.300;   36.100;    0.000; 2.20000
 369.09;   17.000;   -4.900;    0.000;21.90000
 369.10;  -14.000;  -34.700;    0.000;20.70000
 369.11;  -65.000;  -65.000;    0.000; 0.00000
 369.12;   40.500;   52.300;    0.000;-11.80000
 369.13;  -26.100;  -31.900;    0.000; 5.80000
 369.14;  -45.400;  -13.700;    0.000;-31.70000
 369.15;  -68.800;  -82.000;    0.000;13.20000
 369.16;  -54.500;  -38.000;    0.000;-16.50000
 369.17;   -7.800;   -8.200;    0.000; 0.40000
 369.18;   -9.600;   33.200;    0.000;-42.80000
 369.20;  -52.400;  -75.300;    0.000;22.90000
 369.21;  -53.100;  -57.800;    0.000; 4.70000
 369.22;  -44.200;  -63.900;    0.000;19.70000
 369.23;  -73.000;  -79.600;    0.000; 6.60000
 369.24;  -38.600;  -33.600;    0.000;-5.00000
 369.25; -110.700;  -86.900;    0.000;-23.80000
 369.26;   18.700;   25.500;    0.000;-6.80000
 369.27;  -55.000;  -51.900;    0.000;-3.10000
 369.28;  -19.300;  -48.500;    0.000;29.20000
 369.29;   -6.000;    5.100;    0.000;-11.10000
 369.30;  -25.700;  -42.900;    0.000;17.20000
 369.31;  -38.100;  -50.600;    0.000;12.50000
 369.32;  -21.000;   28.500;    0.000;-49.50000
 369.33;   -4.800;   22.400;    0.000;-27.20000
 369.34;  -60.500;  -13.800;    0.000;-46.70000
 369.35;  -82.000;  -62.000;    0.000;-20.00000
 369.36;   -6.700;  -30.300;    0.000;23.60000
 369.37;  -26.300;  -37.100;    0.000;10.80000
 369.38;   23.100;   -7.000;    0.000;30.10000
 369.39;  -19.900;  -36.700;    0.000;16.80000
 369.40;  -74.400;  -90.000;    0.000;15.60000
 369.41;  -62.700;  -50.200;    0.000;-12.50000
 369.42;   26.900;   20.400;    0.000; 6.50000
 369.43;  -34.800;  -42.200;    0.000; 7.40000
 369.44;   17.200;   -8.000;    0.000;25.20000
 369.45;  -67.500;  -65.700;    0.000;-1.80000
 369.46;  -41.100;   -2.100;    0.000;-39.00000
 369.47;  -46.600;  -59.400;    0.000;12.80000
 369.48;  -26.500;  -24.400;    0.000;-2.10000
 369.49;  -58.100;  -62.500;    0.000; 4.40000
 369.50;  -49.200;  -50.100;    0.000; 0.90000
 369.51;    1.800;   -4.200;    0.000; 6.00000
 369.52;   27.100;   34.100;    0.000;-7.00000
 369.53;  -66.700;  -46.700;    0.000;-20.00000
 369.54;  -11.200;  -38.700;    0.000;27.50000
 369.55;  -42.200;  -32.500;    0.000;-9.70000
 369.56;   -0.200;   -3.900;    0.000; 3.70000
 369.57;   20.300;   16.100;    0.000; 4.20000
 369.58;  -19.300;  -46.800;    0.000;27.50000
 369.59;    1.300;   13.900;    0.000;-12.60000
 369.60;  -10.700;  -12.500;    0.000; 1.80000
 369.61;  -20.300;  -19.200;    0.000;-1.10000
 369.62;   18.300;   39.400;    0.000;-21.10000
 369.63;  -19.900;  -39.400;    0.000;19.50000
 369.64;  -54.600;  -44.200;    0.000;-10.40000
 369.65;  -16.500;   -2.200;    0.000;-14.30000
 369.66;  -27.500;  -54.700;    0.000;27.20000
 369.67;    3.900;  -25.500;    0.000;29.40000
 369.68;    5.500;   26.400;    0.000;-20.90000
 369.69;    8.300;   35.000;    0.000;-26.70000
 369.70;  -52.400;  -35.200;    0.000;-17.20000
 369.71;  -30.500;   -8.400;    0.000;-22.10000
 369.72;  -93.400; -106.000;    0.000;12.60000
 369.73;  -65.000;  -67.800;    0.000; 2.80000
 369.74;  -39.600;  -25.100;    0.000;-14.50000
 369.75;  -21.200;  -29.600;    0.000; 8.40000
 369.76;  -80.200;  -76.800;    0.000;-3.40000
 369.77;   -7.600;  -10.200;    0.000; 2.60000
 369.78;  -27.700;  -21.500;    0.000;-6.20000
 369.79;  -20.200;  -12.600;    0.000;-7.60000
 369.80;   -3.500;  -27.600;    0.000;24.10000
 369.81;  -26.400;   -8.000;    0.000;-18.40000
 369.82;   25.000;  -16.900;    0.000;41.90000
 369.83;   36.300;   21.000;    0.000;15.30000
 369.84;   17.200;   17.400;    0.000;-0.20000
 369.85;  -19.900;  -17.900;    0.000;-2.00000
 369.86;   34.900;   14.700;    0.000;20.20000
 369.87;  -22.700;  -38.800;    0.000;16.10000
 369.88;  -62.000;  -83.000;    0.000;21.00000
 369.89;  -81.000;  -49.900;    0.000;-31.10000
 369.90;  -24.200;  -32.900;    0.000; 8.70000
 369.91;  -48.700;  -52.300;    0.000; 3.60000
 369.92;  -25.300;  -15.600;    0.000;-9.70000
 369.93;   23.900;    8.600;    0.000;15.30000
 369.94;  -15.700;  -26.300;    0.000;10.60000
 369.95;   -8.500;   -3.400;    0.000;-5.10000
 369.96;    9.500;  -12.800;    0.000;22.30000
 369.97;  -57.500;  -71.600;    0.000;14.10000
 369.98;   -0.400;  -11.300;    0.000;10.90000
 369.99;  -77.300;  -44.500;    0.000;-32.80000
 370.00;  -32.100;  -17.800;    0.000;-14.30000
 370.01;  -15.100;  -12.000;    0.000;-3.10000
 370.02;  -29.700;    4.300;    0.000;-34.00000
 370.03;   56.800;   35.100;    0.000;21.70000
 370.04;   13.800;   15.400;    0.000;-1.60000
 370.05;  -44.100;  -71.800;    0.000;27.70000
 370.06;   -9.400;  -34.700;    0.000;25.30000
 370.07;  -23.000;  -60.600;    0.000;37.60000
 370.08;   -4.800;  -28.000;    0.000;23.20000
 370.09;  -19.200;    9.200;    0.000;-28.40000
 370.10;   13.700;    4.000;    0.000; 9.70000
 370.11;   10.400;   -9.200;    0.000;19.60000
 370.12;   24.500;   20.400;    0.000; 4.10000
 370.13;    1.000;  -16.700;    0.000;17.70000
 370.14;    0.900;   40.600;    0.000;-39.70000
 370.15;  -62.200;  -48.300;    0.000;-13.90000
 370.16;   39.400;   41.700;    0.000;-2.30000
 370.17;  -45.900;  -31.200;    0.000;-14.70000
 370.18;  -36.000;  -32.500;    0.000;-3.50000
 370.19;  -22.500;   -1.700;    0.000;-20.80000
 370.20;  -26.300;  -37.200;    0.000;10.90000
 370.21;   -2.900;   -7.300;    0.000; 4.40000
 370.22;  -53.600;  -21.100;    0.000;-32.50000
 370.23;  -82.400;  -68.900;    0.000;-13.50000
 370.24;  -70.400;  -85.900;    0.000;15.50000
 370.25;   52.000;   24.300;    0.000;27.70000
 370.25;  -85.100;  -90.300;    0.000; 5.20000
 370.26;  -26.100;  -31.300;    0.000; 5.20000
 370.27;   39.000;   27.300;    0.000;11.70000
 370.28;  -12.100;  -22.600;    0.000;10.50000
 370.29;   16.300;   10.900;    0.000; 5.40000
 370.30;  -45.100;  -59.100;    0.000;14.00000
 370.31;  -30.100;  -14.900;    0.000;-15.20000
 370.32;   60.900;   48.600;    0.000;12.30000
 370.33;  -34.700;  -43.700;    0.000; 9.00000
 370.34;   24.800;   20.300;    0.000; 4.50000
 370.35;   -5.900;   -4.900;    0.000;-1.00000
 370.36;   12.400;   60.100;    0.000;-47.70000
 370.37;  335.600;  314.900;    0.000;20.70000
 370.38;  -33.500;  -10.400;    0.000;-23.10000
 370.39;  -66.600;  -65.100;    0.000;-1.50000
 370.40;  -41.000;  -57.800;    0.000;16.80000
 370.41;   57.000;   52.100;    0.000; 4.90000
 370.42;  -47.600;  -37.200;    0.000;-10.40000
 370.43;  -45.300;  -31.500;    0.000;-13.80000
 370.44;   26.200;   34.100;    0.000;-7.90000
 370.45;   -2.500;   -7.300;    0.000; 4.80000
 370.46;  -73.900;  -69.200;    0.000;-4.70000
 370.47;  -40.900;  -32.300;    0.000;-8.60000
 370.48;  -29.200;  -60.800;    0.000;31.60000
 370.49;  -58.400;  -78.300;    0.000;19.90000
 370.50;  -20.500;  -41.300;    0.000;20.80000
 370.51;  -46.400;  -19.500;    0.000;-26.90000
 370.52;   19.000;   27.600;    0.000;-8.60000
 370.53;  -28.800;  -17.800;    0.000;-11.00000
 370.54;  -64.100;  -13.900;    0.000;-50.20000
 370.55;  -15.000;  -18.100;    0.000; 3.10000
 370.56;    4.200;   23.800;    0.000;-19.60000
 370.57;  -59.800;  -65.400;    0.000; 5.60000
 370.58;  -28.000;  -42.200;    0.000;14.20000
 370.59;   22.200;   41.500;    0.000;-19.30000
 370.60;  -53.500;  -73.300;    0.000;19.80000
 370.61;   33.400;   23.100;    0.000;10.30000
 370.62;  -31.500;  -14.900;    0.000;-16.60000
 370.63;  -61.100;  -43.200;    0.000;-17.90000
 370.64;  -94.500;  -84.300;    0.000;-10.20000
 370.65;  -19.100;  -16.600;    0.000;-2.50000
 370.66;   -7.300;  -14.400;    0.000; 7.10000
 370.67;  -32.900;  -45.200;    0.000;12.30000
 370.67;  -13.900;   14.700;    0.000;-28.60000
 370.68;  -40.100;  -17.700;    0.000;-22.40000
 370.69; -132.600;  -77.900;    0.000;-54.70000
 370.70; -111.700; -114.600;    0.000; 2.90000
 370.71;   10.100;   30.200;    0.000;-20.10000
 370.72;    6.600;    4.600;    0.000; 2.00000
 370.73;    5.900;  -17.500;    0.000;23.40000
 370.74;  -36.500;  -39.000;    0.000; 2.50000
 370.75;  -29.000;  -61.600;    0.000;32.60000
 370.76;  -71.000;  -76.200;    0.000; 5.20000
 370.77;  -78.700;  -88.800;    0.000;10.10000
 370.78;  -75.700;  -74.000;    0.000;-1.70000
 370.79;   41.100;   43.300;    0.000;-2.20000
 370.80;  -27.000;    6.200;    0.000;-33.20000
 370.81;  -41.800;  -40.100;    0.000;-1.70000
 370.82;  -16.200;  -34.800;    0.000;18.60000
 370.83;  -22.400;  -49.400;    0.000;27.00000
 370.84;  -81.800;  -74.200;    0.000;-7.60000
 370.85;  -34.200;    4.200;    0.000;-38.40000
 370.86;   27.400;   20.400;    0.000; 7.00000
 370.87; -107.100; -111.200;    0.000; 4.10000
 370.88;  -21.800;  -35.800;    0.000;14.00000
 370.89;  -22.900;  -27.300;    0.000; 4.40000
 370.90;   24.000;   -2.000;    0.000;26.00000
 370.91;  -21.200;   -9.300;    0.000;-11.90000
 370.92;  -74.200;  -62.000;    0.000;-12.20000
 370.93;  -87.100;  -94.900;    0.000; 7.80000
 370.94;  -10.800;    0.400;    0.000;-11.20000
 370.95;  -23.100;  -34.700;    0.000;11.60000
 370.95;   30.000;   54.700;    0.000;-24.70000
 370.96;  -47.900;  -61.000;    0.000;13.10000
 370.97;  -26.900;  -41.400;    0.000;14.50000
 370.98;  -15.100;  -17.600;    0.000; 2.50000
 370.99;  -13.500;  -13.100;    0.000;-0.40000
 371.00;  -35.200;  -45.900;    0.000;10.70000
 371.01;  -46.300;  -34.500;    0.000;-11.80000
 371.02;   41.000;   50.300;    0.000;-9.30000
 371.03;  -45.700;  -47.400;    0.000; 1.70000
 371.04;  -54.900;  -88.000;    0.000;33.10000
 371.05;  -47.600;  -79.800;    0.000;32.20000
 371.06;    7.300;  -11.200;    0.000;18.50000
 371.07;    6.600;   57.100;    0.000;-50.50000
 371.08;  -31.200;  -41.400;    0.000;10.20000
 371.09;  -65.000;  -85.300;    0.000;20.30000
 371.10;    5.600;   48.100;    0.000;-42.50000
 371.11;    7.500;    6.900;    0.000; 0.60000
 371.12;  -45.500;  -63.500;    0.000;18.00000
 371.13;  -18.700;  -20.000;    0.000; 1.30000
 371.14;   21.800;   10.300;    0.000;11.50000
 371.15;   -1.200;  -39.400;    0.000;38.20000
 371.16;  -44.200;  -17.500;    0.000;-26.70000
 371.17;   -1.100;    0.700;    0.000;-1.80000
 371.17;   87.000;   72.400;    0.000;14.60000
 371.18;   13.200;    8.200;    0.000; 5.00000
 371.19;  -33.400;  -37.500;    0.000; 4.10000
 371.20;  -11.600;  -11.600;    0.000; 0.00000
 371.21;  -42.600;  -45.700;    0.000; 3.10000
 371.22;   -1.400;    8.000;    0.000;-9.40000
 371.23;  -44.200;    0.600;    0.000;-44.80000
 371.24;  -90.900;  -65.400;    0.000;-25.50000
 371.25;  -35.700;  -31.300;    0.000;-4.40000
 371.26;  -28.600;  -32.600;    0.000; 4.00000
 371.27;  -58.100;  -52.200;    0.000;-5.90000
 371.28;  -32.500;  -39.200;    0.000; 6.70000
 371.29;  -16.900;  -26.200;    0.000; 9.30000
 371.30;   35.500;   44.800;    0.000;-9.30000
 371.31;  -14.700;  -36.400;    0.000;21.70000
 371.32;   32.700;    6.600;    0.000;26.10000
 371.33;  -88.400;  -90.600;    0.000; 2.20000
 371.34;   -3.700;   -4.400;    0.000; 0.70000
 371.35;  -55.400;  -74.200;    0.000;18.80000
 371.36;   25.500;   54.200;    0.000;-28.70000
 371.36;  -53.200;  -29.300;    0.000;-23.90000
 371.37;  -51.300;  -52.500;    0.000; 1.20000
 371.38;  -84.900;  -88.400;    0.000; 3.50000
 371.39;  -32.800;  -63.000;    0.000;30.20000
 371.40;  -22.000;  -23.000;    0.000; 1.00000
 371.41;  -35.800;  -18.900;    0.000;-16.90000
 371.42; -119.700; -100.500;    0.000;-19.20000
 371.43;  -47.000;  -44.000;    0.000;-3.00000
 371.44;   20.300;  -11.200;    0.000;31.50000
 371.45;  -42.900;  -34.200;    0.000;-8.70000
 371.46;  -48.000;   -3.300;    0.000;-44.70000
 371.47;   48.200;   42.700;    0.000; 5.50000
 371.48;  -44.500;  -29.600;    0.000;-14.90000
 371.49;  -23.200;   -4.200;    0.000;-19.00000
 371.50;  -34.000;  -24.600;    0.000;-9.40000
 371.51;  -36.600;  -36.900;    0.000; 0.30000

